Time (s),Gyroscope X (deg/s),Gyroscope Y (deg/s),Gyroscope Z (deg/s),Accelerometer X (g),Accelerometer Y (g),Accelerometer Z (g),Magnetometer X (uT),Magnetometer Y (uT),Magnetometer Z (uT),Barometer (hPa)
0.000000000,-7.347334,-0.3421959,0.588203,-1.042043,-0.1282506,-0.09627699,54.88386,5.345317,-8.625113,1002.21
0.005055428,-6.734358,-0.3421959,0.588203,-1.038507,-0.1360248,-0.09267796,54.88386,5.345317,-8.625113,1002.21
0.010110855,-6.121383,-0.281599,0.588203,-1.032134,-0.1345324,-0.08695524,54.88386,5.345317,-8.625113,1002.21
0.015166283,-5.814895,0.08198221,0.5269679,-1.035141,-0.127299,-0.08626423,54.88386,5.345317,-8.625113,1002.21
0.020221233,-5.508407,0.3243697,0.710673,-1.027156,-0.1341459,-0.07406612,54.88386,5.345317,-8.625113,1002.21
0.025276661,-5.631002,0.5667572,0.771908,-1.029975,-0.1424963,-0.07233668,54.88386,5.345317,-8.625113,1002.21
0.030332088,-5.876192,0.5061603,0.710673,-1.032493,-0.1323994,-0.06726874,54.88386,5.345317,-8.625113,1002.21
0.035387039,-6.121383,0.7485478,0.9556131,-1.034507,-0.1332742,-0.07636826,54.88386,5.345317,-8.625113,1002.21
0.040442467,-5.569705,0.3849666,1.016848,-1.034554,-0.1274736,-0.07382662,54.88386,5.345317,-8.625113,1002.21
0.045497894,-5.201919,0.6879509,1.016848,-1.033024,-0.1351852,-0.07690959,54.88386,5.345317,-8.625113,1002.21
0.050553322,-5.018026,0.4455635,0.8331431,-1.031063,-0.1313571,-0.07012829,54.50457,5.705662,-8.622805,1002.21
0.055608273,-4.343753,0.203176,1.078083,-1.030629,-0.1288669,-0.07342038,54.50457,5.705662,-8.622805,1002.21
0.060663700,-4.221158,0.203176,1.261788,-1.030594,-0.1217909,-0.05839951,54.50457,5.705662,-8.622805,1002.21
0.065719128,-4.098563,0.3849666,1.445493,-1.037375,-0.1258229,-0.05748039,54.50457,5.705662,-8.622805,1002.21
0.070774555,-4.159861,0.2637728,1.384258,-1.03887,-0.12246,-0.05642328,54.50457,5.705662,-8.622805,1002.21
0.075829506,-4.527646,0.3243697,1.506728,-1.039789,-0.1268693,-0.05556914,54.50457,5.705662,-8.622805,1002.21
0.080884933,-4.956729,-0.3421959,1.445493,-1.043664,-0.1308044,-0.05754754,54.50457,5.705662,-8.622805,1002.21
0.085940361,-5.140622,-1.129955,1.629198,-1.050467,-0.1295574,-0.05170649,54.50457,5.705662,-8.622805,1002.21
0.090995312,-5.140622,-1.190552,1.445493,-1.051879,-0.1273014,-0.04158198,54.50457,5.705662,-8.622805,1002.21
0.096050739,-5.140622,-1.129955,1.384258,-1.05043,-0.1262944,-0.04204885,54.88386,5.345317,-8.625113,1002.21
0.101106167,-4.711539,-1.008762,1.567963,-1.054889,-0.1276798,-0.05257448,54.88386,5.345317,-8.625113,1002.21
0.106161594,-4.466348,-1.554133,1.629198,-1.064141,-0.1317007,-0.05546173,54.88386,5.345317,-8.625113,1002.21
0.111216545,-4.527646,-1.251149,1.751668,-1.062112,-0.1370423,-0.05370165,54.88386,5.345317,-8.625113,1002.208
0.116271973,-4.405051,-1.675327,1.812904,-1.055828,-0.1339567,-0.05703392,54.88386,5.345317,-8.625113,1002.208
0.121327400,-3.608182,-2.038908,1.874139,-1.054913,-0.1338255,-0.06469928,54.88386,5.345317,-8.625113,1002.208
0.126382828,-2.627421,-1.796521,1.445493,-1.045049,-0.1390711,-0.05965954,54.88386,5.345317,-8.625113,1002.208
0.131437779,-1.524065,-2.038908,1.567963,-1.04948,-0.1347971,-0.05807278,54.88386,5.345317,-8.625113,1002.208
0.136493206,-0.7884942,-2.099505,1.567963,-1.039721,-0.1350875,-0.05912992,54.88386,5.345317,-8.625113,1002.208
0.141548634,0.008374126,-1.735924,1.812904,-1.032861,-0.135489,-0.05633245,54.88386,5.345317,-8.625113,1002.208
0.146603584,1.11173,-1.372343,1.812904,-1.033903,-0.1358593,-0.06542832,54.50935,5.706435,-8.173737,1002.208
0.151659012,1.602111,-0.8875678,1.751668,-1.028031,-0.1391121,-0.06843902,54.50935,5.706435,-8.173737,1002.207
0.156714439,2.215086,-0.7663741,1.567963,-1.034002,-0.1294875,-0.06861673,54.50935,5.706435,-8.173737,1002.207
0.161769867,2.153789,-0.4633897,1.445493,-1.030127,-0.1212672,-0.06030564,54.50935,5.706435,-8.173737,1002.207
0.166824818,2.215086,-0.281599,1.323023,-1.032118,-0.1188507,-0.06166166,54.50935,5.706435,-8.173737,1002.207
0.171880245,1.663408,-0.4027928,1.445493,-1.033619,-0.1150015,-0.06059214,54.50935,5.706435,-8.173737,1002.207
0.176935673,1.540813,-0.1604053,1.629198,-1.035113,-0.1087841,-0.05515372,54.50935,5.706435,-8.173737,1002.207
0.181991100,1.173028,0.1425791,1.506728,-1.035645,-0.1082362,-0.0599223,54.50935,5.706435,-8.173737,1002.207
0.187046051,0.6826473,-0.1604053,1.506728,-1.040038,-0.1059358,-0.05647104,54.50935,5.706435,-8.173737,1002.207
0.192101479,0.4374571,0.08198221,1.506728,-1.041155,-0.1037897,-0.0712473,54.50935,5.706435,-8.173737,1002.205
0.197156906,0.1922668,-0.3421959,1.506728,-1.039259,-0.09841074,-0.07064976,54.52189,4.965569,-8.621555,1002.205
0.202212334,-0.543304,-0.7663741,1.629198,-1.041714,-0.1008101,-0.07595383,54.52189,4.965569,-8.621555,1002.205
0.207267284,-0.543304,-1.190552,1.567963,-1.042763,-0.09640895,-0.07870458,54.52189,4.965569,-8.621555,1002.205
0.212322712,-0.8497918,-0.9481647,1.629198,-1.041707,-0.09844206,-0.07158492,54.52189,4.965569,-8.621555,1002.205
0.217378140,-1.094982,-1.554133,1.506728,-1.043598,-0.1028766,-0.07024349,54.52189,4.965569,-8.621555,1002.205
0.219905853,-1.094982,-1.43294,1.629198,-1.047003,-0.1029614,-0.0687772,54.52189,4.965569,-8.621555,1002.205
0.224961281,-1.585363,-1.61473,1.567963,-1.045445,-0.10168,-0.05487551,54.52189,4.965569,-8.621555,1002.205
0.230016708,-1.769255,-2.160102,1.384258,-1.044008,-0.1035062,-0.06115929,54.52189,4.965569,-8.621555,1002.205
0.235071659,-2.137041,-2.038908,1.261788,-1.043765,-0.115383,-0.04757959,54.52189,4.965569,-8.621555,1002.205
0.240127087,-2.014446,-2.099505,1.384258,-1.041902,-0.1094683,-0.0503194,54.52189,4.965569,-8.621555,1002.205
0.245182514,-1.953148,-2.220699,1.261788,-1.041361,-0.1114611,-0.04654513,54.88386,5.345317,-8.625113,1002.205
0.250237942,-1.462767,-1.43294,1.629198,-1.033482,-0.1109706,-0.03703207,54.88386,5.345317,-8.625113,1002.205
0.255292893,-0.8497918,-0.7663741,1.751668,-1.035984,-0.1128059,-0.04758765,54.88386,5.345317,-8.625113,1002.205
0.260348320,-0.7271967,-0.7663741,1.567963,-1.040893,-0.1166533,-0.05673534,54.88386,5.345317,-8.625113,1002.205
0.265403748,-0.6046016,-0.7057772,1.323023,-1.034034,-0.117527,-0.05490736,54.88386,5.345317,-8.625113,1002.205
0.270459175,-0.7271967,-0.281599,1.323023,-1.039348,-0.1201081,-0.05157146,54.88386,5.345317,-8.625113,1002.205
0.275514126,-0.6046016,-0.281599,1.078083,-1.037939,-0.1109323,-0.04512778,54.88386,5.345317,-8.625113,1002.205
0.280569553,0.1309693,-0.03921154,1.139318,-1.04,-0.1069579,-0.05314609,54.88386,5.345317,-8.625113,1002.205
0.285624981,0.5600522,0.08198221,1.323023,-1.039626,-0.104834,-0.06458574,54.88386,5.345317,-8.625113,1002.205
0.290679932,0.9278376,-0.3421959,1.506728,-1.033238,-0.1095579,-0.06620245,54.88386,5.345317,-8.625113,1002.205
0.295735359,0.9891351,0.02138533,1.629198,-1.035067,-0.1122026,-0.05428353,54.87043,5.714589,-9.074808,1002.205
0.300790787,1.295623,0.1425791,1.445493,-1.033104,-0.1131389,-0.05432589,54.87043,5.714589,-9.074808,1002.205
0.305846214,1.663408,0.3243697,1.384258,-1.034227,-0.1047905,-0.06080564,54.87043,5.714589,-9.074808,1002.205
0.310901165,1.847301,0.8697416,1.323023,-1.030875,-0.09651574,-0.05679701,54.87043,5.714589,-9.074808,1002.205
0.315956593,1.908599,0.8091447,1.261788,-1.034791,-0.1027554,-0.06745113,54.87043,5.714589,-9.074808,1002.203
0.321012020,1.786003,0.6273541,1.506728,-1.035871,-0.09496398,-0.06915794,54.87043,5.714589,-9.074808,1002.203
0.326067448,1.479516,0.6879509,1.506728,-1.037264,-0.1051195,-0.0751479,54.87043,5.714589,-9.074808,1002.203
0.331122398,1.540813,0.4455635,1.629198,-1.037769,-0.1036695,-0.07510628,54.87043,5.714589,-9.074808,1002.203
0.336177826,1.11173,0.8091447,1.506728,-1.040694,-0.1056341,-0.07752233,54.87043,5.714589,-9.074808,1002.203
0.341233254,1.234325,0.8697416,1.506728,-1.036243,-0.1061375,-0.07087465,54.88774,4.974496,-9.073557,1002.203
0.346288204,0.9278376,0.5061603,1.384258,-1.037758,-0.09607189,-0.0624657,54.88774,4.974496,-9.073557,1002.203
0.351343632,0.9891351,0.6879509,1.506728,-1.041159,-0.0952123,-0.05906043,54.88774,4.974496,-9.073557,1002.203
0.356399059,0.86654,0.6273541,1.261788,-1.041181,-0.09326697,-0.05901079,54.88774,4.974496,-9.073557,1002.201
0.361454487,0.7439449,0.3849666,1.323023,-1.044147,-0.09229939,-0.06230943,54.88774,4.974496,-9.073557,1002.201
0.366509438,0.8052425,0.8091447,1.139318,-1.043017,-0.1035163,-0.05925391,54.88774,4.974496,-9.073557,1002.201
0.371564865,0.3761595,0.8091447,1.200553,-1.037706,-0.09997668,-0.06160792,54.88774,4.974496,-9.073557,1002.201
0.376620293,0.4374571,0.8697416,0.8943781,-1.042607,-0.09860151,-0.0620054,54.88774,4.974496,-9.073557,1002.201
0.381675720,0.3761595,0.6879509,1.139318,-1.039042,-0.1126203,-0.06383164,54.88774,4.974496,-9.073557,1002.201
0.386730671,-0.05292344,0.6879509,1.078083,-1.033285,-0.1037573,-0.06366082,54.88774,4.974496,-9.073557,1002.201
0.391786099,0.1922668,0.6273541,1.323023,-1.038731,-0.1013338,-0.06977154,54.89252,4.97527,-8.624489,1002.201
0.396841526,0.4987546,0.8697416,1.261788,-1.038727,-0.1013408,-0.069293,54.89252,4.97527,-8.624489,1002.201
0.401896954,0.7439449,0.6273541,1.323023,-1.03664,-0.1134557,-0.07009937,54.89252,4.97527,-8.624489,1002.201
0.406951904,0.9891351,0.5667572,1.200553,-1.038018,-0.1164999,-0.06346116,54.89252,4.97527,-8.624489,1002.201
0.412007809,1.173028,0.6273541,1.016848,-1.038588,-0.107311,-0.06034973,54.89252,4.97527,-8.624489,1002.201
0.417063236,1.479516,0.8697416,1.139318,-1.037564,-0.112142,-0.06143969,54.89252,4.97527,-8.624489,1002.201
0.422122479,1.847301,0.8697416,1.139318,-1.033707,-0.1105538,-0.06526582,54.89252,4.97527,-8.624489,1002.201
0.427174091,2.276384,0.7485478,1.078083,-1.037137,-0.1058318,-0.05984709,54.89252,4.97527,-8.624489,1002.201
0.432229042,2.64417,0.8697416,1.016848,-1.032702,-0.1101129,-0.06095532,54.89252,4.97527,-8.624489,1002.201
0.437284470,2.460277,0.8091447,1.078083,-1.036689,-0.1019391,-0.05927365,54.89252,4.97527,-8.624489,1002.2
0.442339897,2.828062,0.8091447,1.078083,-1.036649,-0.1058227,-0.05985148,53.77586,4.94539,-9.064756,1002.2
0.444867134,2.88936,0.7485478,1.078083,-1.035296,-0.0970203,-0.06107682,53.77586,4.94539,-9.064756,1002.2
0.449922562,2.950657,0.6273541,1.078083,-1.035249,-0.1047239,-0.06653933,53.77586,4.94539,-9.064756,1002.2
0.454977512,2.766765,0.7485478,0.9556131,-1.036354,-0.09307718,-0.06575414,53.77586,4.94539,-9.064756,1002.2
0.460032940,2.705467,0.203176,1.200553,-1.036295,-0.09794757,-0.06539973,53.77586,4.94539,-9.064756,1002.2
0.465088368,2.337682,-0.1604053,1.384258,-1.028918,-0.09886867,-0.05974783,53.77586,4.94539,-9.064756,1002.2
0.470143795,2.521574,-0.3421959,1.506728,-1.031865,-0.09460272,-0.05578152,53.77586,4.94539,-9.064756,1002.2
0.475198746,3.011955,-0.4027928,1.567963,-1.038167,-0.09718078,-0.05387246,53.77586,4.94539,-9.064756,1002.2
0.480254173,3.073252,-0.5845835,1.384258,-1.041527,-0.1011563,-0.05250547,53.77586,4.94539,-9.064756,1002.201
0.485309601,2.766765,-0.8875678,1.384258,-1.042893,-0.1075553,-0.04930391,53.77586,4.94539,-9.064756,1002.201
0.490364552,2.828062,-1.43294,1.261788,-1.040978,-0.1064968,-0.05264638,54.8752,5.715364,-8.625738,1002.201
0.495419979,2.64417,-1.43294,1.261788,-1.041358,-0.1081344,-0.04119432,54.8752,5.715364,-8.625738,1002.201
0.500475407,3.195848,-1.675327,1.323023,-1.039982,-0.1036595,-0.04588114,54.8752,5.715364,-8.625738,1002.201
0.505530834,3.318443,-1.796521,1.384258,-1.043872,-0.1056634,-0.04685281,54.8752,5.715364,-8.625738,1002.201
0.510585785,3.502336,-1.796521,1.567963,-1.041938,-0.1036888,-0.04634215,54.8752,5.715364,-8.625738,1002.201
0.515641212,3.686228,-2.038908,1.567963,-1.047259,-0.1095895,-0.04883558,54.8752,5.715364,-8.625738,1002.201
0.520696640,4.115311,-2.463087,1.506728,-1.047901,-0.1036001,-0.05968862,54.8752,5.715364,-8.625738,1002.201
0.525752067,4.850882,-2.40249,1.506728,-1.052713,-0.1090548,-0.05882425,54.8752,5.715364,-8.625738,1002.201
0.530807018,5.709048,-2.644877,1.445493,-1.054641,-0.1124672,-0.06080776,54.8752,5.715364,-8.625738,1002.201
0.535862446,6.322023,-2.766071,1.629198,-1.047841,-0.1108527,-0.06274603,54.8752,5.715364,-8.625738,1002.201
0.540917873,6.934999,-2.40249,1.567963,-1.045918,-0.1079054,-0.06221055,54.15992,4.58582,-8.617996,1002.201
0.545973778,7.793165,-2.463087,1.690434,-1.050255,-0.1180872,-0.07008837,54.15992,4.58582,-8.617996,1002.201
0.551029205,8.712628,-2.644877,1.384258,-1.039458,-0.1189517,-0.06398862,54.15992,4.58582,-8.617996,1002.201
0.556084156,9.325604,-2.947861,1.506728,-1.039866,-0.1252973,-0.06318852,54.15992,4.58582,-8.617996,1002.201
0.561139583,9.632092,-2.826668,1.445493,-1.03893,-0.1237777,-0.06603128,54.15992,4.58582,-8.617996,1002.201
0.566195011,10.06117,-2.523683,1.384258,-1.031045,-0.1280587,-0.06286334,54.15992,4.58582,-8.617996,1002.201
0.571250439,10.30637,-2.463087,1.261788,-1.035049,-0.1193775,-0.06260486,54.15992,4.58582,-8.617996,1002.201
0.576305389,10.36766,-2.463087,1.261788,-1.029262,-0.1219957,-0.07565244,54.15992,4.58582,-8.617996,1002.201
0.581360817,10.73545,-2.220699,1.506728,-1.03223,-0.1181666,-0.07504831,54.15992,4.58582,-8.617996,1002.201
0.586416244,10.49026,-2.281296,1.323023,-1.034773,-0.1108818,-0.07723291,54.52189,4.965569,-8.621555,1002.201
0.591471195,10.24507,-2.160102,1.323023,-1.034741,-0.1114175,-0.07389556,54.52189,4.965569,-8.621555,1002.201
0.596526623,10.18377,-2.099505,1.200553,-1.03923,-0.1075098,-0.08045635,54.52189,4.965569,-8.621555,1002.201
0.601582050,10.30637,-2.220699,1.261788,-1.03624,-0.1099505,-0.07623786,54.52189,4.965569,-8.621555,1002.201
0.606637478,10.42896,-2.40249,1.016848,-1.041734,-0.09744114,-0.07347426,54.52189,4.965569,-8.621555,1002.201
0.611692428,10.61285,-2.644877,1.139318,-1.043714,-0.0959973,-0.0748551,54.52189,4.965569,-8.621555,1002.201
0.616747856,10.73545,-2.644877,1.323023,-1.041694,-0.09894252,-0.07064026,54.52189,4.965569,-8.621555,1002.201
0.621803284,10.91934,-2.947861,1.506728,-1.042797,-0.09729686,-0.08447187,54.52189,4.965569,-8.621555,1002.201
0.626858711,10.98064,-2.887265,1.384258,-1.038743,-0.1051185,-0.07704891,54.52189,4.965569,-8.621555,1002.201
0.631913662,11.47102,-2.826668,1.323023,-1.041623,-0.1062163,-0.07226206,54.52189,4.965569,-8.621555,1002.201
0.636969089,11.40972,-2.766071,1.200553,-1.043577,-0.1076763,-0.07467445,54.14649,4.955092,-9.06769,1002.201
0.642024517,11.47102,-2.887265,1.200553,-1.042033,-0.1120826,-0.070971,54.14649,4.955092,-9.06769,1002.201
0.647079468,11.10323,-2.766071,1.261788,-1.038692,-0.106641,-0.0727793,54.14649,4.955092,-9.06769,1002.201
0.652134895,10.98064,-2.887265,1.384258,-1.037097,-0.1116184,-0.0633458,54.14649,4.955092,-9.06769,1002.201
0.657190323,11.22583,-3.129652,1.506728,-1.037657,-0.1095903,-0.06951277,54.14649,4.955092,-9.06769,1002.201
0.662245750,11.28713,-2.766071,1.445493,-1.03713,-0.1077489,-0.0618109,54.14649,4.955092,-9.06769,1002.201
0.667300701,11.40972,-2.766071,1.261788,-1.039086,-0.1139663,-0.07152548,54.14649,4.955092,-9.06769,1002.201
0.672356129,11.53232,-3.069055,1.261788,-1.034629,-0.1149561,-0.06489022,54.14649,4.955092,-9.06769,1002.201
0.674883366,11.59361,-3.129652,1.323023,-1.035564,-0.1202886,-0.06741068,54.14649,4.955092,-9.06769,1002.201
0.679939270,11.71621,-3.129652,1.323023,-1.039999,-0.1145768,-0.06435105,54.14649,4.955092,-9.06769,1002.201
0.684994221,12.08399,-3.432636,1.261788,-1.037964,-0.1208839,-0.06309433,54.52578,4.594748,-9.069999,1002.201
0.690052509,12.69697,-3.55383,1.261788,-1.040822,-0.1153568,-0.04569173,54.52578,4.594748,-9.069999,1002.201
0.695105553,13.24865,-3.432636,1.323023,-1.04535,-0.1132813,-0.05995878,54.52578,4.594748,-9.069999,1002.201
0.700160503,14.04552,-3.311443,1.323023,-1.047192,-0.1249473,-0.06311037,54.52578,4.594748,-9.069999,1002.201
0.705216408,13.80033,-3.432636,1.200553,-1.043713,-0.1297611,-0.0623081,54.52578,4.594748,-9.069999,1002.201
0.710271358,13.86162,-3.129652,1.139318,-1.038061,-0.1159429,-0.06823413,54.52578,4.594748,-9.069999,1002.201
0.715326786,14.04552,-2.40249,1.200553,-1.033226,-0.1148158,-0.07255998,54.52578,4.594748,-9.069999,1002.201
0.720381737,14.29071,-2.281296,1.384258,-1.037685,-0.1090616,-0.07237159,54.52578,4.594748,-9.069999,1002.201
0.725437164,14.4133,-2.341893,1.200553,-1.028879,-0.102273,-0.05983471,54.52578,4.594748,-9.069999,1002.201
0.730492592,14.71979,-1.917715,1.445493,-1.032491,-0.09530898,-0.07446494,54.52578,4.594748,-9.069999,1002.201
0.735547543,14.90368,-1.554133,1.078083,-1.035868,-0.09877694,-0.07452115,54.88774,4.974496,-9.073557,1002.201
0.740602970,14.78109,-1.735924,1.445493,-1.039346,-0.09539385,-0.07727482,54.88774,4.974496,-9.073557,1002.201
0.745658398,15.27147,-1.43294,1.261788,-1.037369,-0.09064251,-0.06711892,54.88774,4.974496,-9.073557,1002.201
0.750713825,15.39406,-1.069358,1.384258,-1.03774,-0.09801016,-0.06299388,54.88774,4.974496,-9.073557,1002.201
0.755768776,15.82315,-0.8875678,1.261788,-1.035745,-0.1004337,-0.06115932,54.88774,4.974496,-9.073557,1002.201
0.760824203,15.57796,-0.7663741,1.078083,-1.039149,-0.09766411,-0.05531171,54.88774,4.974496,-9.073557,1002.201
0.765879631,15.51666,-1.129955,1.200553,-1.043603,-0.09620215,-0.0609775,54.88774,4.974496,-9.073557,1002.2
0.770935059,15.27147,-1.493537,1.200553,-1.03728,-0.100806,-0.07072935,54.88774,4.974496,-9.073557,1002.2
0.775990009,15.08757,-1.493537,1.384258,-1.034778,-0.09992215,-0.06163422,54.88774,4.974496,-9.073557,1002.2
0.781045437,14.4746,-1.61473,1.261788,-1.038148,-0.09816758,-0.05294021,54.88774,4.974496,-9.073557,1002.2
0.786100864,13.92292,-1.372343,1.323023,-1.035246,-0.09711212,-0.05485583,54.90118,4.605224,-8.623863,1002.2
0.791155815,13.67773,-1.735924,1.200553,-1.038164,-0.09670858,-0.05290297,54.90118,4.605224,-8.623863,1002.2
0.796211243,13.30995,-1.978312,1.323023,-1.033234,-0.09575804,-0.04526536,54.90118,4.605224,-8.623863,1002.2
0.801266670,13.30995,-2.038908,1.261788,-1.040121,-0.08911902,-0.04215902,54.90118,4.605224,-8.623863,1002.2
0.806322098,13.73903,-1.735924,1.384258,-1.042156,-0.08424262,-0.04536713,54.90118,4.605224,-8.623863,1002.203
0.811379433,13.61643,-1.978312,1.506728,-1.044125,-0.08377144,-0.0467728,54.90118,4.605224,-8.623863,1002.203
0.816432476,13.43254,-2.523683,1.629198,-1.039552,-0.09687712,-0.04331907,54.90118,4.605224,-8.623863,1002.203
0.821487904,13.30995,-2.766071,1.445493,-1.040061,-0.09637163,-0.04521642,54.90118,4.605224,-8.623863,1002.203
0.826543331,12.81956,-2.887265,1.384258,-1.035602,-0.1011743,-0.04394437,54.90118,4.605224,-8.623863,1002.203
0.831598282,12.75827,-2.463087,1.323023,-1.036076,-0.09978094,-0.04007445,54.88386,5.345317,-8.625113,1002.203
0.836653709,12.88086,-2.766071,1.261788,-1.032742,-0.09813824,-0.04820304,54.88386,5.345317,-8.625113,1002.203
0.841709137,13.30995,-2.826668,1.384258,-1.037541,-0.09647451,-0.03518904,54.88386,5.345317,-8.625113,1002.203
0.846764088,13.67773,-2.826668,1.323023,-1.037996,-0.09845012,-0.03379869,54.88386,5.345317,-8.625113,1002.203
0.851819515,14.352,-2.826668,1.384258,-1.035033,-0.09750769,-0.0280577,54.88386,5.345317,-8.625113,1002.203
0.856874943,14.78109,-2.523683,1.445493,-1.039456,-0.1037211,-0.04110014,54.88386,5.345317,-8.625113,1002.203
0.861930370,14.96498,-2.705474,1.384258,-1.03699,-0.1013429,-0.03436047,54.88386,5.345317,-8.625113,1002.203
0.866985321,15.02628,-2.766071,1.261788,-1.036496,-0.1051538,-0.03924952,54.88386,5.345317,-8.625113,1002.203
0.872040749,14.65849,-2.766071,1.445493,-1.039403,-0.1057229,-0.03732149,54.88386,5.345317,-8.625113,1002.203
0.877096176,14.4133,-3.008458,1.384258,-1.038424,-0.1033296,-0.03343989,54.88386,5.345317,-8.625113,1002.203
0.882151604,14.10681,-3.190249,1.261788,-1.035686,-0.09483083,-0.04521862,54.53444,4.224701,-9.069373,1002.203
0.887206554,14.59719,-3.069055,1.261788,-1.037607,-0.09397221,-0.03991235,54.53444,4.224701,-9.069373,1002.203
0.892261982,15.14887,-3.250846,1.323023,-1.030821,-0.09471168,-0.0471766,54.53444,4.224701,-9.069373,1002.205
0.897317409,15.21017,-3.250846,1.384258,-1.031729,-0.09152332,-0.03368189,54.53444,4.224701,-9.069373,1002.205
0.902372360,15.02628,-2.766071,1.078083,-1.035086,-0.09740879,-0.03475723,54.53444,4.224701,-9.069373,1002.205
0.904900551,14.71979,-2.705474,0.9556131,-1.035139,-0.09207327,-0.03366363,54.53444,4.224701,-9.069373,1002.205
0.909955978,14.59719,-2.523683,0.9556131,-1.037058,-0.09502762,-0.03372058,54.53444,4.224701,-9.069373,1002.205
0.915011406,14.4746,-2.766071,1.139318,-1.032786,-0.08567725,-0.03543833,54.53444,4.224701,-9.069373,1002.205
0.920066357,14.5359,-2.40249,1.261788,-1.038136,-0.08581255,-0.03299743,54.53444,4.224701,-9.069373,1002.205
0.925121784,14.4133,-2.523683,1.078083,-1.040508,-0.08883956,-0.02874315,54.53444,4.224701,-9.069373,1002.205
0.930177212,14.22941,-2.038908,1.139318,-1.037151,-0.0820026,-0.02620737,54.8964,4.60445,-9.072932,1002.205
0.935232162,14.4133,-1.493537,1.078083,-1.03814,-0.08675695,-0.03493641,54.8964,4.60445,-9.072932,1002.205
0.940287590,14.5359,-1.675327,1.078083,-1.039499,-0.09269085,-0.03028683,54.8964,4.60445,-9.072932,1002.205
0.945343018,14.78109,-1.61473,1.078083,-1.040539,-0.08449789,-0.02623876,54.8964,4.60445,-9.072932,1002.205
0.950398445,14.90368,-1.796521,0.9556131,-1.038646,-0.0838763,-0.03294341,54.8964,4.60445,-9.072932,1002.205
0.955453396,14.65849,-1.311746,0.9556131,-1.040557,-0.07637151,-0.01645699,54.8964,4.60445,-9.072932,1002.205
0.960508823,14.4133,-1.372343,1.200553,-1.043943,-0.08172828,-0.02039115,54.8964,4.60445,-9.072932,1002.205
0.965564251,14.5359,-1.43294,1.139318,-1.037188,-0.08098049,-0.02953232,54.8964,4.60445,-9.072932,1002.205
0.970619678,14.59719,-1.493537,0.9556131,-1.041579,-0.08249304,-0.03144426,54.8964,4.60445,-9.072932,1002.205
0.975674629,14.4746,-1.675327,1.016848,-1.04047,-0.08795872,-0.02249734,54.8964,4.60445,-9.072932,1002.205
0.980730057,14.22941,-1.372343,0.8943781,-1.033242,-0.08003401,-0.02284302,54.53444,4.224701,-9.069373,1002.205
0.985785484,13.67773,-1.311746,1.078083,-1.039591,-0.07871436,-0.02131319,54.53444,4.224701,-9.069373,1002.205
0.990840435,12.94216,-1.43294,0.9556131,-1.036587,-0.07975257,-0.01322917,54.53444,4.224701,-9.069373,1002.205
0.995895863,12.0227,-1.372343,0.8331431,-1.041985,-0.07599014,-0.01116751,54.53444,4.224701,-9.069373,1002.205
1.000951290,11.8388,-1.493537,0.8943781,-1.038545,-0.07930259,-0.01319923,54.53444,4.224701,-9.069373,1002.205
1.006006718,11.8388,-1.796521,0.8331431,-1.035539,-0.08415376,-0.01047841,54.53444,4.224701,-9.069373,1002.205
1.011061668,11.28713,-1.796521,0.8943781,-1.040329,-0.08822007,-0.004791431,54.53444,4.224701,-9.069373,1002.205
1.016117096,10.79675,-1.978312,0.8331431,-1.039008,-0.08745218,-0.02201954,54.53444,4.224701,-9.069373,1002.205
1.021172524,10.18377,-2.038908,0.8331431,-1.042423,-0.08656432,-0.02052842,54.53444,4.224701,-9.069373,1002.205
1.026227951,9.877282,-2.220699,1.016848,-1.038975,-0.09132165,-0.02355444,54.53444,4.224701,-9.069373,1002.205
1.031282902,10.18377,-2.038908,0.9556131,-1.040576,-0.08157284,-0.02664282,54.52488,4.223153,-9.967511,1002.205
1.036338329,10.91934,-2.40249,1.078083,-1.038112,-0.08300051,-0.02574489,54.52488,4.223153,-9.967511,1002.205
1.041393757,11.59361,-1.917715,1.078083,-1.039578,-0.08349998,-0.02670123,54.52488,4.223153,-9.967511,1002.205
1.046451569,11.71621,-1.554133,1.016848,-1.03751,-0.09034292,-0.02210716,54.52488,4.223153,-9.967511,1002.205
1.051504135,11.34842,-1.190552,0.8331431,-1.035227,-0.08143754,-0.02908372,54.52488,4.223153,-9.967511,1002.205
1.056559563,11.10323,-1.129955,0.8943781,-1.027896,-0.07989165,-0.02576245,54.52488,4.223153,-9.967511,1002.205
1.061614990,10.42896,-1.190552,0.8331431,-1.031356,-0.07844683,-0.02904431,54.52488,4.223153,-9.967511,1002.205
1.066669941,10.30637,-0.6451803,0.771908,-1.024614,-0.07101048,-0.02987655,54.52488,4.223153,-9.967511,1002.205
1.071725369,9.754687,-0.281599,0.8943781,-1.029427,-0.07074924,-0.02072809,54.52488,4.223153,-9.967511,1002.205
1.076784134,9.570794,0.2637728,0.649438,-1.034747,-0.07379547,-0.01884021,54.53921,4.225475,-8.620304,1002.205
1.081836224,9.019116,0.3243697,0.649438,-1.034448,-0.06439066,-0.0291366,54.53921,4.225475,-8.620304,1002.205
1.086891174,8.160951,0.6879509,0.710673,-1.040668,-0.07283298,-0.02546233,54.53921,4.225475,-8.620304,1002.205
1.091947079,7.241487,0.6273541,0.588203,-1.03915,-0.07100166,-0.01585507,54.53921,4.225475,-8.620304,1002.205
1.097002506,6.689809,0.7485478,0.649438,-1.039123,-0.07533626,-0.018838,54.53921,4.225475,-8.620304,1002.205
1.102057934,6.015535,0.8091447,0.2820278,-1.043917,-0.0793955,-0.01362956,54.53921,4.225475,-8.620304,1002.205
1.107113361,5.770345,0.6273541,0.09832272,-1.049209,-0.08487339,-0.01180374,54.53921,4.225475,-8.620304,1002.205
1.112168312,5.341262,0.6879509,0.03708769,-1.05355,-0.09076293,-0.01382739,54.53921,4.225475,-8.620304,1002.205
1.117223740,5.034774,0.3243697,0.1595577,-1.047049,-0.1028384,-0.01180197,54.53921,4.225475,-8.620304,1002.205
1.122279167,4.605691,0.08198221,0.1595577,-1.049049,-0.09897703,-0.01216369,54.53921,4.225475,-8.620304,1002.205
1.127334595,4.176609,0.203176,0.03708769,-1.041179,-0.1065635,-0.01578216,54.52189,4.965569,-8.621555,1002.205
1.129861832,3.931418,0.02138533,0.03708769,-1.042184,-0.1036707,-0.01522039,54.52189,4.965569,-8.621555,1002.205
1.134916782,3.747526,-0.1604053,-0.1466174,-1.035753,-0.1075209,-0.01011274,54.52189,4.965569,-8.621555,1002.203
1.139972210,3.931418,-0.281599,-0.08538236,-1.036286,-0.1003057,-0.005136793,54.52189,4.965569,-8.621555,1002.203
1.145027638,3.502336,-0.3421959,0.03708769,-1.036739,-0.103712,-0.005697834,54.52189,4.965569,-8.621555,1002.203
1.150083065,3.563633,-0.7057772,0.09832272,-1.04221,-0.09838465,-0.01077701,54.52189,4.965569,-8.621555,1002.203
1.155138016,3.441038,-0.7663741,0.2207928,-1.038332,-0.09445659,-0.008320086,54.52189,4.965569,-8.621555,1002.203
1.160193443,2.950657,-0.7663741,0.09832272,-1.038412,-0.09097456,-0.01349712,54.52189,4.965569,-8.621555,1002.203
1.165248871,2.88936,-0.6451803,0.1595577,-1.043235,-0.09117141,-0.006275224,54.52189,4.965569,-8.621555,1002.203
1.170304298,3.011955,-0.4027928,0.09832272,-1.042813,-0.08770855,-0.009542486,54.52189,4.965569,-8.621555,1002.203
1.175359249,3.13455,-0.3421959,0.2820278,-1.039497,-0.08174537,-0.01373106,54.16381,4.214999,-9.06644,1002.203
1.180414677,3.13455,-0.6451803,0.2207928,-1.04104,-0.07876989,-0.01938589,54.16381,4.214999,-9.06644,1002.203
1.185470104,3.37974,-0.8269709,0.3432629,-1.040053,-0.08400953,-0.02575219,54.16381,4.214999,-9.06644,1002.203
1.190525055,3.563633,-0.7057772,0.2207928,-1.039637,-0.07767812,-0.02559521,54.16381,4.214999,-9.06644,1002.203
1.195580483,3.37974,-0.6451803,0.2207928,-1.037543,-0.08647344,-0.02057224,54.16381,4.214999,-9.06644,1002.203
1.200635910,3.318443,-0.4027928,0.2207928,-1.038023,-0.08649666,-0.01961078,54.16381,4.214999,-9.06644,1002.203
1.205691338,3.073252,-0.2210022,0.3432629,-1.038484,-0.08893742,-0.01966846,54.16381,4.214999,-9.06644,1002.203
1.210746288,2.337682,0.02138533,0.2820278,-1.034581,-0.08743396,-0.01775213,54.16381,4.214999,-9.06644,1002.203
1.215801716,1.724706,-0.1604053,0.09832272,-1.038098,-0.08159802,-0.02187936,54.16381,4.214999,-9.06644,1002.203
1.220857143,1.356921,-0.09980842,0.2820278,-1.040528,-0.08547055,-0.02626358,54.16381,4.214999,-9.06644,1002.201
1.225914955,0.9891351,0.02138533,0.3432629,-1.031811,-0.08327686,-0.03203527,54.89252,4.97527,-8.624489,1002.201
1.230968475,0.7439449,0.1425791,0.2820278,-1.033703,-0.08342623,-0.02436113,54.89252,4.97527,-8.624489,1002.201
1.236023426,0.1309693,0.6273541,0.2820278,-1.031751,-0.08529282,-0.02729954,54.89252,4.97527,-8.624489,1002.201
1.241078854,-0.3594113,0.7485478,0.2207928,-1.029376,-0.08084214,-0.0291239,54.89252,4.97527,-8.624489,1002.201
1.246134281,-0.972387,0.8091447,0.4044979,-1.02939,-0.07891094,-0.02811717,54.89252,4.97527,-8.624489,1002.201
1.251189709,-1.585363,0.9909353,0.4044979,-1.024116,-0.06959184,-0.02649393,54.89252,4.97527,-8.624489,1002.201
1.256244659,-2.014446,0.8091447,0.4657329,-1.023627,-0.06672832,-0.022117,54.89252,4.97527,-8.624489,1002.201
1.261300087,-2.811314,1.29392,0.5269679,-1.023715,-0.05799554,-0.02045797,54.89252,4.97527,-8.624489,1002.2
1.266355515,-3.485587,1.718098,0.5269679,-1.028091,-0.05620265,-0.0155835,54.89252,4.97527,-8.624489,1002.2
1.271410942,-4.650241,1.657501,0.771908,-1.035024,-0.05043033,-0.01968004,54.89252,4.97527,-8.624489,1002.2
1.276465893,-5.447109,1.778695,0.588203,-1.033041,-0.04426237,-0.006615684,54.15992,4.58582,-8.617996,1002.2
1.281521320,-6.305275,1.536307,0.710673,-1.039857,-0.05013377,-0.01292427,54.15992,4.58582,-8.617996,1002.2
1.286576748,-7.286036,1.596904,0.710673,-1.036871,-0.05351889,-0.01064476,54.15992,4.58582,-8.617996,1002.2
1.291631699,-8.082905,1.112129,0.8331431,-1.049054,-0.05758732,-0.01398426,54.15992,4.58582,-8.617996,1002.2
1.296687126,-9.002368,0.6273541,0.710673,-1.050389,-0.06927949,-0.01474755,54.15992,4.58582,-8.617996,1002.2
1.301742554,-9.737939,0.6273541,0.771908,-1.043535,-0.07300054,-0.01777942,54.15992,4.58582,-8.617996,1002.2
1.306797981,-10.10572,0.5061603,0.5269679,-1.048406,-0.07691851,-0.02214174,54.15992,4.58582,-8.617996,1002.2
1.311852932,-10.41221,0.203176,0.771908,-1.03906,-0.08116519,-0.01946549,54.15992,4.58582,-8.617996,1002.2
1.316908360,-11.02519,0.4455635,0.5269679,-1.036971,-0.08995344,-0.01492105,54.15992,4.58582,-8.617996,1002.2
1.321963787,-11.33168,0.5667572,0.710673,-1.037958,-0.08471379,-0.008554762,54.53533,4.596296,-8.171861,1002.2
1.327019215,-12.06725,0.2637728,0.588203,-1.045199,-0.09118658,-0.007693308,54.53533,4.596296,-8.171861,1002.2
1.332074165,-12.25114,0.203176,0.5269679,-1.041248,-0.09881748,-0.01319088,54.53533,4.596296,-8.171861,1002.2
1.337129593,-12.86411,0.5061603,0.588203,-1.049435,-0.1010798,-0.002159654,54.53533,4.596296,-8.171861,1002.2
1.342185021,-13.04801,0.3849666,0.5269679,-1.051349,-0.1030897,-0.0002776207,54.53533,4.596296,-8.171861,1002.198
1.347241402,-12.98671,0.2637728,0.649438,-1.052661,-0.1191094,-0.004502377,54.53533,4.596296,-8.171861,1002.198
1.352295399,-12.49633,-0.03921154,0.4657329,-1.047652,-0.129732,-0.003862192,54.53533,4.596296,-8.171861,1002.198
1.357350826,-11.76076,0.3243697,0.588203,-1.045229,-0.131082,-0.008228184,54.53533,4.596296,-8.171861,1002.198
1.359878540,-11.39297,0.203176,0.710673,-1.050553,-0.1384063,-0.01315154,54.53533,4.596296,-8.171861,1002.198
1.364933968,-10.53481,0.5061603,0.2820278,-1.043113,-0.1451563,-0.008127126,54.53533,4.596296,-8.171861,1002.198
1.369989395,-10.04443,0.3243697,0.4657329,-1.037231,-0.1479511,-0.009211264,54.90118,4.605224,-8.623863,1002.198
1.375044823,-8.941071,0.1425791,0.588203,-1.034335,-0.1440271,-0.007702647,54.90118,4.605224,-8.623863,1002.198
1.380099773,-8.389393,0.4455635,0.4657329,-1.034847,-0.1406601,-0.005697227,54.90118,4.605224,-8.623863,1002.198
1.385155201,-7.469929,0.6879509,0.588203,-1.034973,-0.1318567,-0.008823575,54.90118,4.605224,-8.623863,1002.198
1.390210629,-7.040846,0.8091447,0.649438,-1.033709,-0.1195581,-0.01618303,54.90118,4.605224,-8.623863,1002.198
1.395266056,-6.673061,0.6879509,0.8331431,-1.033332,-0.1074402,-0.01252734,54.90118,4.605224,-8.623863,1002.198
1.400321007,-6.673061,0.5061603,1.078083,-1.034841,-0.1054797,-0.01533577,54.90118,4.605224,-8.623863,1002.198
1.405376434,-6.550466,0.5667572,1.200553,-1.030657,-0.08549361,-0.01247363,54.90118,4.605224,-8.623863,1002.198
1.410431862,-6.611763,0.2637728,1.261788,-1.028329,-0.07000562,-0.003963204,54.90118,4.605224,-8.623863,1002.198
1.415486813,-6.611763,0.5061603,1.629198,-1.025043,-0.05684635,-0.001266062,54.90118,4.605224,-8.623863,1002.198
1.420542240,-7.040846,0.5667572,1.874139,-1.031385,-0.05363788,0.004141711,54.54787,3.855428,-8.619679,1002.198
1.425597668,-7.531227,0.5061603,2.241549,-1.02903,-0.05200629,-0.004456649,54.54787,3.855428,-8.619679,1002.198
1.430653095,-8.266797,0.203176,2.547724,-1.033823,-0.05511407,0.002212234,54.54787,3.855428,-8.619679,1002.198
1.435708046,-9.860534,-0.2210022,2.853899,-1.031872,-0.05602919,0.0007342678,54.54787,3.855428,-8.619679,1002.198
1.440763474,-10.90259,-0.8875678,2.976369,-1.03374,-0.0509843,0.01907277,54.54787,3.855428,-8.619679,1002.198
1.445818901,-12.37373,-1.493537,3.221309,-1.033723,-0.05577699,0.01416327,54.54787,3.855428,-8.619679,1002.198
1.450874329,-13.96747,-2.40249,3.527484,-1.045,-0.04969903,0.01681812,54.54787,3.855428,-8.619679,1002.198
1.455929279,-15.13212,-2.947861,3.527484,-1.033151,-0.05687477,0.02322629,54.54787,3.855428,-8.619679,1002.198
1.460984707,-15.92899,-3.675024,3.343779,-1.041366,-0.06384499,0.02360556,54.54787,3.855428,-8.619679,1002.198
1.466040135,-16.84846,-4.402186,3.772424,-1.039805,-0.06971022,0.02727177,54.54787,3.855428,-8.619679,1002.2
1.471095562,-17.27754,-4.886961,3.894894,-1.048023,-0.07191602,0.03447469,54.53444,4.224701,-9.069373,1002.2
1.476150513,-17.76792,-5.31114,3.894894,-1.04892,-0.07683989,0.03723056,54.53444,4.224701,-9.069373,1002.2
1.481205940,-18.07441,-5.31114,3.894894,-1.050834,-0.08123206,0.03570077,54.53444,4.224701,-9.069373,1002.2
1.486261368,-18.01311,-5.795915,3.833659,-1.049709,-0.09958149,0.02756373,54.53444,4.224701,-9.069373,1002.2
1.491316319,-18.07441,-6.159496,4.017365,-1.046694,-0.1087319,0.02490892,54.53444,4.224701,-9.069373,1002.2
1.496371746,-18.07441,-6.644271,3.95613,-1.046589,-0.1136871,0.03100579,54.53444,4.224701,-9.069373,1002.2
1.501427174,-17.95181,-7.068449,3.894894,-1.034589,-0.1325701,0.03950876,54.53444,4.224701,-9.069373,1002.2
1.506482601,-17.52273,-7.007852,3.95613,-1.035065,-0.1368856,0.03461606,54.53444,4.224701,-9.069373,1002.2
1.511537552,-16.84846,-7.189643,3.772424,-1.037452,-0.1422665,0.03354436,54.53444,4.224701,-9.069373,1002.2
1.516592979,-16.05159,-7.189643,3.588719,-1.033487,-0.148495,0.03191233,54.53444,4.224701,-9.069373,1002.2
1.521648407,-15.62251,-7.25024,3.711189,-1.035437,-0.1566294,0.02023394,54.52966,4.223927,-9.518442,1002.2
1.526703834,-14.76434,-7.613821,3.466249,-1.03468,-0.1419224,0.01389801,54.52966,4.223927,-9.518442,1002.2
1.531758785,-13.59969,-7.492627,3.588719,-1.033095,-0.1492607,0.01848406,54.52966,4.223927,-9.518442,1002.2
1.536814213,-12.43503,-7.492627,3.343779,-1.033285,-0.1393858,0.008683002,54.52966,4.223927,-9.518442,1002.2
1.541869640,-11.88335,-7.735015,3.405014,-1.027452,-0.1392343,0.005759186,54.52966,4.223927,-9.518442,1002.2
1.546924591,-11.51557,-6.947255,3.405014,-1.026597,-0.1308991,0.002611661,54.52966,4.223927,-9.518442,1002.2
1.551980019,-11.02519,-6.401884,3.098839,-1.032514,-0.1256585,0.002800783,54.52966,4.223927,-9.518442,1002.2
1.557035446,-10.16702,-6.220093,2.853899,-1.032227,-0.1171839,-0.01039166,54.52966,4.223927,-9.518442,1002.2
1.562090874,-9.98313,-6.098899,2.731429,-1.036178,-0.1147897,-0.01268723,54.52966,4.223927,-9.518442,1002.2
1.567145824,-9.676641,-5.977705,2.608959,-1.034683,-0.1138674,-0.007411633,54.90894,3.863582,-9.520751,1002.2
1.572201252,-9.737939,-5.674721,2.670194,-1.030328,-0.1127635,-0.01077601,54.90894,3.863582,-9.520751,1002.2
1.577256679,-10.28962,-4.886961,2.547724,-1.030835,-0.102264,0.00242196,54.90894,3.863582,-9.520751,1002.2
1.582312107,-10.47351,-4.341589,2.670194,-1.0285,-0.104403,-0.01441084,54.90894,3.863582,-9.520751,1002.2
1.587367058,-10.8413,-3.917412,2.731429,-1.028074,-0.1009472,-0.01719957,54.90894,3.863582,-9.520751,1002.2
1.589895248,-11.02519,-3.917412,2.731429,-1.027739,-0.0878001,-0.01734736,54.90894,3.863582,-9.520751,1002.2
1.594950676,-11.94465,-3.432636,2.792664,-1.031113,-0.08603849,-0.009131888,54.90894,3.863582,-9.520751,1002.2
1.600005627,-12.43503,-2.766071,2.547724,-1.0332,-0.07582654,-0.0112464,54.90894,3.863582,-9.520751,1002.2
1.605061054,-12.74152,-2.766071,2.853899,-1.029391,-0.06938913,-0.01399132,54.90894,3.863582,-9.520751,1002.2
1.610116482,-13.41579,-2.220699,2.853899,-1.030895,-0.0655328,-0.01340034,54.90894,3.863582,-9.520751,1002.2
1.615173817,-13.66098,-1.857118,2.853899,-1.031822,-0.06992798,-0.01350329,54.16679,3.472583,-10.4124,1002.2
1.620226860,-13.72228,-1.43294,2.976369,-1.031014,-0.06102867,-0.02190232,54.16679,3.472583,-10.4124,1002.2
1.625282288,-13.84488,-0.8269709,3.098839,-1.030524,-0.06054738,-0.02093721,54.16679,3.472583,-10.4124,1002.2
1.630337715,-14.94823,-0.7057772,3.160074,-1.031345,-0.06466106,-0.007150142,54.16679,3.472583,-10.4124,1002.198
1.635392666,-16.11288,-0.6451803,3.037604,-1.033708,-0.06627852,0.0004911423,54.16679,3.472583,-10.4124,1002.198
1.640448093,-17.52273,0.02138533,2.853899,-1.032442,-0.05636214,-0.01028014,54.16679,3.472583,-10.4124,1002.198
1.645503521,-18.3196,0.02138533,2.976369,-1.030467,-0.05636817,-0.00742644,54.16679,3.472583,-10.4124,1002.198
1.650558948,-18.80998,0.3243697,2.915134,-1.031887,-0.06552273,-0.01530573,54.16679,3.472583,-10.4124,1002.198
1.655613899,-19.60685,0.9909353,2.853899,-1.029366,-0.06895931,-0.01015061,54.16679,3.472583,-10.4124,1002.198
1.660669327,-20.95539,1.354517,2.915134,-1.030784,-0.07764167,-0.01706041,54.16679,3.472583,-10.4124,1002.198
1.665724754,-21.81356,1.960485,2.608959,-1.031731,-0.07723708,-0.01273239,54.14948,4.212677,-10.41365,1002.198
1.670780182,-23.10081,2.081679,2.547724,-1.030325,-0.07472165,-0.01651178,54.14948,4.212677,-10.41365,1002.198
1.675835133,-23.83638,2.202873,2.241549,-1.033642,-0.08449072,-0.01816496,54.14948,4.212677,-10.41365,1002.198
1.680890560,-24.51065,2.445261,2.547724,-1.022902,-0.08620077,-0.02070371,54.14948,4.212677,-10.41365,1002.198
1.685945988,-25.24622,2.445261,2.486489,-1.027689,-0.08503751,-0.006745053,54.14948,4.212677,-10.41365,1002.198
1.691000938,-25.7979,2.930035,2.364019,-1.029701,-0.08210643,-0.01000282,54.14948,4.212677,-10.41365,1002.198
1.696056366,-25.8592,3.354213,2.364019,-1.032986,-0.08812612,-0.001985938,54.14948,4.212677,-10.41365,1002.198
1.701111793,-26.28828,3.596601,2.057843,-1.038435,-0.08141039,-0.002242501,54.14948,4.212677,-10.41365,1002.198
1.706167221,-26.22698,4.323763,1.935374,-1.035459,-0.09144169,-0.01114313,54.14948,4.212677,-10.41365,1002.198
1.711222172,-26.28828,4.990329,1.751668,-1.033972,-0.09574196,-0.01461776,54.14948,4.212677,-10.41365,1002.196
1.716277599,-25.7366,5.717492,1.690434,-1.040826,-0.09630609,-0.01791858,53.79207,3.462218,-10.79438,1002.196
1.721333027,-25.18493,5.959879,1.629198,-1.043205,-0.1059863,-0.02436591,53.79207,3.462218,-10.79438,1002.196
1.726388454,-24.75584,6.14167,1.139318,-1.044104,-0.1147161,-0.02745179,53.79207,3.462218,-10.79438,1002.196
1.731443405,-25.00103,6.687042,0.8331431,-1.040704,-0.1227153,-0.04157107,53.79207,3.462218,-10.79438,1002.196
1.736498833,-25.24622,7.11122,0.4044979,-1.040332,-0.1167784,-0.0476475,53.79207,3.462218,-10.79438,1002.196
1.741554260,-25.24622,7.959576,0.1595577,-1.036499,-0.1118141,-0.04947259,53.79207,3.462218,-10.79438,1002.196
1.746609211,-24.75584,8.747335,-0.08538236,-1.034659,-0.1068085,-0.05654407,53.79207,3.462218,-10.79438,1002.196
1.751664638,-24.14287,9.595692,-0.3303225,-1.026817,-0.1052959,-0.05035596,53.79207,3.462218,-10.79438,1002.196
1.756720066,-24.44935,10.56524,-0.6364976,-1.020718,-0.08758502,-0.05570854,53.79207,3.462218,-10.79438,1002.196
1.761775494,-25.18493,11.53479,-0.9426728,-1.016356,-0.08649524,-0.05811585,53.79207,3.462218,-10.79438,1002.196
1.766831398,-25.7979,12.68613,-1.432553,-1.013093,-0.07234211,-0.0568295,54.91283,3.492762,-9.969194,1002.196
1.771886349,-26.53347,13.47389,-2.044904,-1.021073,-0.06455082,-0.06708862,54.91283,3.492762,-9.969194,1002.196
1.776941776,-27.82072,14.14046,-2.351079,-1.02266,-0.05483025,-0.06826285,54.91283,3.492762,-9.969194,1002.196
1.781997204,-28.98537,14.32225,-2.902194,-1.027672,-0.04563138,-0.07133296,54.91283,3.492762,-9.969194,1002.196
1.787052631,-30.21132,15.1706,-3.392074,-1.03265,-0.03221093,-0.06376353,54.91283,3.492762,-9.969194,1002.196
1.792107582,-31.55987,16.50373,-3.943189,-1.030204,-0.0264637,-0.05454428,54.91283,3.492762,-9.969194,1002.196
1.797167301,-32.23415,17.2309,-4.188129,-1.026327,-0.01967416,-0.04818457,54.91283,3.492762,-9.969194,1002.196
1.802218437,-32.11155,18.20045,-4.616775,-1.024463,-0.01947534,-0.05920847,54.91283,3.492762,-9.969194,1002.196
1.807273865,-32.11155,18.68522,-4.494305,-1.020642,-0.01734429,-0.06685049,54.91283,3.492762,-9.969194,1002.196
1.812328815,-31.86636,18.74582,-4.55554,-1.019413,-0.03588444,-0.062067,54.55086,3.113013,-9.965635,1002.196
1.814856052,-31.80506,18.92761,-4.739245,-1.015553,-0.03430329,-0.06541459,54.55086,3.113013,-9.965635,1002.196
1.819911480,-31.86636,18.98821,-4.616775,-1.014007,-0.04109173,-0.06512296,54.55086,3.113013,-9.965635,1002.196
1.824966907,-31.74377,19.71537,-4.739245,-1.017805,-0.04755033,-0.06094242,54.55086,3.113013,-9.965635,1002.196
1.830022335,-31.80506,19.41239,-4.984185,-1.024202,-0.04471518,-0.06320366,54.55086,3.113013,-9.965635,1002.196
1.835077286,-31.98896,19.89716,-5.16789,-1.026083,-0.04869164,-0.05993567,54.55086,3.113013,-9.965635,1002.196
1.840132713,-32.05025,19.65477,-5.351595,-1.027937,-0.05509976,-0.05672973,54.55086,3.113013,-9.965635,1002.196
1.845188141,-32.23415,19.65477,-5.41283,-1.028916,-0.0541594,-0.05573907,54.55086,3.113013,-9.965635,1002.196
1.850243568,-31.86636,19.35179,-5.229125,-1.030097,-0.03189812,-0.04893835,54.55086,3.113013,-9.965635,1002.196
1.855298519,-31.74377,19.53358,-5.04542,-1.029551,-0.03866236,-0.05150919,54.55086,3.113013,-9.965635,1002.196
1.860353947,-30.763,20.38194,-4.861715,-1.021343,-0.03262948,-0.05430597,54.52876,3.852332,-10.41595,1002.196
1.865409374,-30.08873,20.56373,-4.616775,-1.026679,-0.03564746,-0.05433224,54.52876,3.852332,-10.41595,1002.196
1.870464802,-29.10797,20.80611,-4.494305,-1.031668,-0.03601277,-0.06865697,54.52876,3.852332,-10.41595,1002.196
1.875519752,-28.92408,20.62432,-4.43307,-1.027737,-0.03789245,-0.06826314,54.52876,3.852332,-10.41595,1002.198
1.880575180,-28.92408,20.56373,-4.43307,-1.021912,-0.03867834,-0.07360446,54.52876,3.852332,-10.41595,1002.198
1.885631084,-29.41446,20.13955,-4.67801,-1.02096,-0.03290188,-0.06820036,54.52876,3.852332,-10.41595,1002.198
1.890685558,-29.72095,20.44253,-4.80048,-1.026427,-0.0266301,-0.07134057,54.52876,3.852332,-10.41595,1002.198
1.895741940,-30.08873,20.13955,-4.984185,-1.037782,-0.01802865,-0.07484467,54.52876,3.852332,-10.41595,1002.198
1.900796890,-30.51781,19.47298,-4.984185,-1.044821,-0.004918972,-0.08162625,54.52876,3.852332,-10.41595,1002.198
1.905852318,-31.37598,19.29119,-5.106655,-1.051185,-0.002619595,-0.08055014,54.52876,3.852332,-10.41595,1002.198
1.910907745,-32.05025,19.1094,-5.29036,-1.061043,0.002139653,-0.08560229,53.44464,3.456276,-8.610253,1002.198
1.915962696,-33.3988,18.68522,-5.65777,-1.067003,0.005554989,-0.09359796,53.44464,3.456276,-8.610253,1002.198
1.921018124,-34.62475,18.44283,-6.086415,-1.080706,0.01155925,-0.08900706,53.44464,3.456276,-8.610253,1002.198
1.926073551,-35.8507,18.01866,-6.51506,-1.077359,0.008895591,-0.1020327,53.44464,3.456276,-8.610253,1002.198
1.931128979,-36.64757,17.53388,-6.576295,-1.090899,0.005553585,-0.09049959,53.44464,3.456276,-8.610253,1002.198
1.936183929,-37.44444,16.92791,-6.882471,-1.092298,0.003024021,-0.08576313,53.44464,3.456276,-8.610253,1002.198
1.941239357,-37.99612,16.14015,-6.943706,-1.084971,-0.0006596672,-0.09071353,53.44464,3.456276,-8.610253,1002.198
1.946294785,-38.11871,15.47359,-6.760001,-1.077528,-0.01789002,-0.1007969,53.44464,3.456276,-8.610253,1002.198
1.951350212,-38.11871,15.47359,-6.637531,-1.064395,-0.01994208,-0.1100695,53.44464,3.456276,-8.610253,1002.198
1.956409454,-37.68963,15.65538,-6.576295,-1.052902,-0.03879888,-0.1039548,53.44464,3.456276,-8.610253,1002.198
1.961460590,-36.70887,16.07956,-6.392591,-1.040507,-0.05559329,-0.1044988,53.80184,3.83525,-9.062881,1002.194
1.966516018,-36.0346,16.38254,-6.453825,-1.035965,-0.06340582,-0.09708022,53.80184,3.83525,-9.062881,1002.194
1.971570969,-35.54422,16.01896,-6.392591,-1.037726,-0.07665084,-0.0921339,53.80184,3.83525,-9.062881,1002.194
1.976626396,-34.44086,15.65538,-6.637531,-1.041388,-0.08621815,-0.07510731,53.80184,3.83525,-9.062881,1002.194
1.981681824,-32.84712,16.01896,-7.004941,-1.040189,-0.09661073,-0.06197766,53.80184,3.83525,-9.062881,1002.194
1.986737251,-30.8856,16.14015,-7.127411,-1.041485,-0.101234,-0.04724155,53.80184,3.83525,-9.062881,1002.194
1.991792202,-28.3724,16.07956,-7.433586,-1.046848,-0.09658363,-0.03941261,53.80184,3.83525,-9.062881,1002.194
1.996847630,-25.61401,16.14015,-7.372351,-1.04784,-0.09228839,-0.0349853,53.80184,3.83525,-9.062881,1002.194
2.001903057,-21.99745,15.53419,-7.494821,-1.045827,-0.1028383,-0.0429325,53.80184,3.83525,-9.062881,1002.194
2.006958485,-18.1357,15.2918,-7.494821,-1.050131,-0.1073677,-0.0382194,53.80184,3.83525,-9.062881,1002.194
2.012013435,-13.96747,14.92822,-7.433586,-1.059317,-0.1115088,-0.03297151,54.53533,4.596296,-8.171861,1002.194
2.017068863,-9.492748,14.14046,-7.249881,-1.050607,-0.1116832,-0.0431121,54.53533,4.596296,-8.171861,1002.194
2.022124290,-5.385812,14.32225,-6.453825,-1.043363,-0.09664715,-0.03082961,54.53533,4.596296,-8.171861,1002.194
2.027179718,-1.524065,14.68583,-6.14765,-1.041013,-0.09167482,-0.03503424,54.53533,4.596296,-8.171861,1002.194
2.032234669,1.479516,14.92822,-5.5353,-1.047624,-0.07558861,-0.04509551,54.53533,4.596296,-8.171861,1002.194
2.037290096,4.850882,15.2312,-4.80048,-1.03812,-0.05969587,-0.05483526,54.53533,4.596296,-8.171861,1002.194
2.042345524,7.486677,15.35239,-4.494305,-1.031954,-0.0563913,-0.0730022,54.53533,4.596296,-8.171861,1002.193
2.044873238,8.957819,15.77657,-4.43307,-1.027143,-0.04950589,-0.07191518,54.53533,4.596296,-8.171861,1002.193
2.049928665,11.04194,16.20075,-3.943189,-1.015035,-0.03291996,-0.05963927,54.53533,4.596296,-8.171861,1002.193
2.054984093,12.26789,16.01896,-3.392074,-1.015766,-0.01486412,-0.06396102,54.53533,4.596296,-8.171861,1002.193
2.060039997,12.51308,15.95836,-3.085899,-1.025268,-0.0008060279,-0.07213149,54.53144,4.967116,-7.723417,1002.193
2.065094471,11.8388,15.35239,-2.657254,-1.029264,0.006909639,-0.07237637,54.53144,4.967116,-7.723417,1002.193
2.070149899,10.61285,14.86762,-2.596019,-1.032781,0.007508939,-0.08429673,54.53144,4.967116,-7.723417,1002.193
2.075205326,9.141711,14.56464,-2.534784,-1.037827,0.010104,-0.1014182,54.53144,4.967116,-7.723417,1002.193
2.080260277,8.038355,14.74643,-2.657254,-1.03162,0.01476161,-0.1123699,54.53144,4.967116,-7.723417,1002.191
2.085315704,6.505916,14.26165,-3.330839,-1.026194,0.01047047,-0.1115727,54.53144,4.967116,-7.723417,1002.191
2.090371132,5.15737,13.17091,-3.453309,-1.030554,0.016041,-0.09894232,54.53144,4.967116,-7.723417,1002.191
2.095426559,3.931418,12.14076,-3.881954,-1.024312,0.02158651,-0.1041267,54.53144,4.967116,-7.723417,1002.191
2.100481510,2.521574,11.353,-4.188129,-1.022824,0.02442582,-0.09688728,54.53144,4.967116,-7.723417,1002.191
2.105536938,0.9278376,11.05002,-4.67801,-1.023121,0.009305109,-0.09487499,54.90685,4.977592,-7.277282,1002.191
2.110592365,-1.033684,11.17121,-5.106655,-1.019965,-0.002488917,-0.08323573,54.90685,4.977592,-7.277282,1002.191
2.115647316,-3.362992,11.11061,-5.963945,-1.016275,-0.01864379,-0.07219108,54.90685,4.977592,-7.277282,1002.191
2.120702744,-5.753597,11.2924,-6.637531,-1.010885,-0.01715545,-0.06741668,54.90685,4.977592,-7.277282,1002.191
2.125758171,-8.021607,11.353,-7.127411,-1.011762,-0.02259392,-0.06275906,54.90685,4.977592,-7.277282,1002.191
2.130813599,-9.860534,11.353,-7.433586,-1.01173,-0.01884453,-0.053089,54.90685,4.977592,-7.277282,1002.191
2.135868549,-11.69946,11.4136,-7.862231,-1.015171,-0.0183865,-0.05543861,54.90685,4.977592,-7.277282,1002.191
2.140923977,-13.78358,11.65598,-8.107171,-1.024826,-0.02590564,-0.05266591,54.90685,4.977592,-7.277282,1002.191
2.145979404,-15.7451,12.08016,-8.474581,-1.03112,-0.03373448,-0.05759292,54.90685,4.977592,-7.277282,1002.191
2.151034832,-16.72586,12.44374,-8.658286,-1.040764,-0.04508071,-0.05922636,54.90685,4.977592,-7.277282,1002.191
2.156089783,-17.70662,12.92852,-8.535816,-1.033307,-0.05662341,-0.05911145,54.54441,4.969217,-6.504516,1002.191
2.161145210,-18.68738,13.17091,-8.658286,-1.032526,-0.0833414,-0.06123412,54.54441,4.969217,-6.504516,1002.191
2.166200638,-19.91333,14.01926,-8.597051,-1.026134,-0.08712097,-0.06091184,54.54441,4.969217,-6.504516,1002.189
2.171255589,-21.07799,14.32225,-8.780756,-1.030839,-0.1041982,-0.06369514,54.54441,4.969217,-6.504516,1002.189
2.176311016,-22.12005,14.98881,-8.841991,-1.024049,-0.1049447,-0.07048085,54.54441,4.969217,-6.504516,1002.189
2.181366444,-22.42653,16.07956,-9.148167,-1.027876,-0.1161112,-0.07695226,54.54441,4.969217,-6.504516,1002.189
2.186421871,-22.24264,16.68553,-9.331871,-1.026382,-0.1180434,-0.07605798,54.54441,4.969217,-6.504516,1002.189
2.191476822,-21.75226,17.65508,-9.699282,-1.029845,-0.1146886,-0.07689749,54.54441,4.969217,-6.504516,1002.189
2.196532249,-20.8328,18.62463,-9.944221,-1.028362,-0.1227877,-0.08669241,54.54441,4.969217,-6.504516,1002.189
2.201587677,-20.46501,19.17,-10.37287,-1.026047,-0.1187033,-0.09666432,54.54441,4.969217,-6.504516,1002.189
2.206643105,-19.72944,19.71537,-10.98522,-1.025988,-0.12024,-0.09143764,54.1699,5.330336,-6.053139,1002.185
2.211698055,-19.05517,20.32134,-11.41386,-1.026523,-0.1220672,-0.1000966,54.1699,5.330336,-6.053139,1002.185
2.216753483,-18.3196,20.80611,-11.90374,-1.02702,-0.1215829,-0.1005583,54.1699,5.330336,-6.053139,1002.185
2.221808910,-17.40013,20.74552,-12.45486,-1.036326,-0.1188376,-0.1004006,54.1699,5.330336,-6.053139,1002.185
2.226863861,-16.78716,20.9879,-13.12844,-1.037657,-0.1305369,-0.1006853,54.1699,5.330336,-6.053139,1002.185
2.231919289,-16.29678,21.0485,-13.74079,-1.049926,-0.1201637,-0.09360319,54.1699,5.330336,-6.053139,1002.185
2.236974716,-15.8064,20.9879,-13.9245,-1.025424,-0.1203721,-0.08187126,54.1699,5.330336,-6.053139,1002.185
2.242030144,-14.09007,21.0485,-13.9245,-1.036679,-0.1100514,-0.07001248,54.1699,5.330336,-6.053139,1002.185
2.247085095,-12.49633,21.41208,-14.04697,-1.039674,-0.1018877,-0.06642542,54.1699,5.330336,-6.053139,1002.185
2.252140522,-11.08649,21.59387,-14.16944,-1.04357,-0.09816867,-0.05959153,54.1699,5.330336,-6.053139,1002.185
2.257195950,-10.5961,22.01805,-14.1082,-1.038228,-0.09706777,-0.06152907,54.16124,5.700382,-6.053764,1002.185
2.262251377,-9.676641,22.26044,-14.1082,-1.040738,-0.09031869,-0.06037631,54.16124,5.700382,-6.053764,1002.185
2.267306328,-8.757178,22.50283,-14.29191,-1.039886,-0.08721299,-0.07179552,54.16124,5.700382,-6.053764,1002.185
2.272361755,-7.469929,22.62402,-14.1082,-1.040304,-0.0940166,-0.07292198,54.16124,5.700382,-6.053764,1002.185
2.274889946,-6.795656,22.80581,-14.29191,-1.038781,-0.0998112,-0.07404114,54.16124,5.700382,-6.053764,1002.185
2.279944897,-5.753597,22.86641,-14.41438,-1.025117,-0.09622302,-0.06929158,54.16124,5.700382,-6.053764,1002.185
2.285000324,-4.159861,22.9876,-14.65932,-1.052397,-0.09682383,-0.06282517,54.16124,5.700382,-6.053764,1002.185
2.290055752,-2.872611,22.62402,-14.72055,-1.086408,-0.114404,-0.06821676,54.16124,5.700382,-6.053764,1002.185
2.295111179,-1.953148,21.41208,-14.59808,-1.067391,-0.1211608,-0.08101584,54.16124,5.700382,-6.053764,1002.185
2.300166130,0.2535644,20.38194,-14.1082,-1.047246,-0.1372246,-0.08831706,54.16124,5.700382,-6.053764,1002.185
2.305221558,3.37974,20.74552,-14.04697,-1.055028,-0.1407532,-0.08976945,54.89563,6.833021,-4.265231,1002.185
2.310276985,5.770345,21.0485,-14.29191,-1.042848,-0.1514361,-0.1088275,54.89563,6.833021,-4.265231,1002.185
2.315331936,7.302784,22.13924,-14.59808,-1.042489,-0.1483324,-0.1207208,54.89563,6.833021,-4.265231,1002.185
2.320387364,8.712628,22.74521,-14.84302,-1.032286,-0.1551964,-0.1372693,54.89563,6.833021,-4.265231,1002.185
2.325442791,10.61285,23.53297,-14.84302,-1.029066,-0.1542933,-0.1612145,54.89563,6.833021,-4.265231,1002.185
2.330498219,13.55514,24.68431,-15.21043,-1.034517,-0.1494805,-0.1643919,54.89563,6.833021,-4.265231,1002.184
2.335553169,16.31353,26.56282,-15.63908,-1.035614,-0.144036,-0.1719032,54.89563,6.833021,-4.265231,1002.184
2.340608597,17.96856,28.32013,-16.25143,-1.031723,-0.1382262,-0.1650898,54.89563,6.833021,-4.265231,1002.184
2.345664024,19.31711,30.13803,-17.23119,-1.033395,-0.1235858,-0.1699682,54.89563,6.833021,-4.265231,1002.184
2.350719452,20.11398,31.22878,-17.84354,-1.046256,-0.1035091,-0.1616764,54.53844,6.454046,-3.812604,1002.184
2.355774403,20.78825,32.01654,-18.70083,-1.052816,-0.08989697,-0.1689285,54.53844,6.454046,-3.812604,1002.184
2.360829830,20.97214,32.80429,-19.68059,-1.059889,-0.06720192,-0.1658911,54.53844,6.454046,-3.812604,1002.184
2.365885258,20.54306,33.53146,-20.47665,-1.069204,-0.05348995,-0.1506131,54.53844,6.454046,-3.812604,1002.184
2.370940209,20.11398,34.01623,-21.70135,-1.076578,-0.04305412,-0.1416607,54.53844,6.454046,-3.812604,1002.184
2.375995636,19.5623,34.5616,-22.37493,-1.084831,-0.03519527,-0.1241478,54.53844,6.454046,-3.812604,1002.184
2.381051064,18.70413,34.5616,-23.66087,-1.091097,-0.0278429,-0.1028366,54.53844,6.454046,-3.812604,1002.184
2.386106491,17.96856,34.5616,-24.45692,-1.098273,-0.02396249,-0.07825368,54.53844,6.454046,-3.812604,1002.184
2.391161442,16.9265,34.07683,-25.37545,-1.109467,-0.007566656,-0.04948471,54.53844,6.454046,-3.812604,1002.184
2.396216869,15.57796,33.47086,-26.35521,-1.112394,0.004755034,-0.03095127,54.53844,6.454046,-3.812604,1002.184
2.401272297,14.78109,32.6831,-27.0288,-1.120982,0.009940036,0.002295686,54.16504,7.558244,-1.630354,1002.184
2.406327725,13.49384,32.01654,-28.00856,-1.124864,0.01839527,0.01786738,54.16504,7.558244,-1.630354,1002.184
2.411383629,12.08399,30.62281,-28.37597,-1.126234,0.02390732,0.03812807,54.16504,7.558244,-1.630354,1002.185
2.416438103,10.61285,28.98669,-28.74338,-1.13054,0.03128191,0.06037885,54.16504,7.558244,-1.630354,1002.185
2.421494007,8.773926,26.74461,-29.23326,-1.131866,0.03909142,0.08979383,54.16504,7.558244,-1.630354,1002.185
2.426549435,7.425379,25.0479,-29.41696,-1.1459,0.03956035,0.106216,54.16504,7.558244,-1.630354,1002.185
2.431604862,5.831643,22.80581,-29.17202,-1.161916,0.04385531,0.1246692,54.16504,7.558244,-1.630354,1002.185
2.436659813,4.544394,20.44253,-29.35573,-1.182728,0.04790401,0.153694,54.16504,7.558244,-1.630354,1002.185
2.441715241,3.011955,17.47329,-29.23326,-1.202834,0.06389713,0.1657807,54.16504,7.558244,-1.630354,1002.185
2.446770668,1.479516,14.44344,-29.11079,-1.232606,0.07334378,0.1806648,54.16504,7.558244,-1.630354,1002.185
2.451826096,-0.2368161,10.86823,-28.49844,-1.269254,0.08750531,0.19717,54.52402,8.680407,-0.2879562,1002.185
2.456881046,-1.64666,7.232414,-27.70238,-1.290767,0.09717711,0.2071942,54.52402,8.680407,-0.2879562,1002.185
2.461936474,-4.098563,2.808842,-26.72262,-1.320057,0.1052162,0.2191655,54.52402,8.680407,-0.2879562,1002.185
2.466991902,-7.102144,-2.220699,-25.92657,-1.331854,0.1189605,0.2292014,54.52402,8.680407,-0.2879562,1002.185
2.472046852,-10.04443,-7.977403,-25.06927,-1.335565,0.1071028,0.2365952,54.52402,8.680407,-0.2879562,1002.185
2.477102280,-12.49633,-14.15828,-24.45692,-1.332421,0.08723886,0.2346243,54.52402,8.680407,-0.2879562,1002.185
2.482157707,-15.00953,-19.91499,-24.08951,-1.326336,0.0712142,0.2399046,54.52402,8.680407,-0.2879562,1002.185
2.487213135,-17.82922,-26.64124,-24.08951,-1.320273,0.0599893,0.2496158,54.52402,8.680407,-0.2879562,1002.185
2.492268086,-21.20058,-33.60988,-24.08951,-1.309849,0.0546186,0.2637434,54.52402,8.680407,-0.2879562,1002.184
2.497323513,-25.12363,-41.24509,-24.15075,-1.306737,0.05100039,0.2818147,54.52402,8.680407,-0.2879562,1002.184
2.499850750,-27.33034,-45.00209,-24.51816,-1.311468,0.04730032,0.2956492,54.12741,9.780845,-0.2868981,1002.184
2.504906178,-31.74377,-52.87969,-25.19175,-1.309033,0.05497169,0.3063537,54.12741,9.780845,-0.2868981,1002.184
2.509961605,-35.9733,-60.69669,-25.92657,-1.29421,0.04681425,0.3170176,54.12741,9.780845,-0.2868981,1002.184
2.515016556,-39.28337,-68.51368,-26.72262,-1.276625,0.0437795,0.3139018,54.12741,9.780845,-0.2868981,1002.184
2.520071983,-42.04176,-75.96709,-27.15127,-1.247644,0.03111414,0.3180934,54.12741,9.780845,-0.2868981,1002.184
2.525127411,-43.88068,-82.57216,-28.74338,-1.259218,0.0187377,0.3178883,54.12741,9.780845,-0.2868981,1002.184
2.530182838,-44.67755,-89.11662,-30.39672,-1.245121,-0.02322689,0.3104647,54.12741,9.780845,-0.2868981,1002.184
2.535237789,-45.10664,-95.96407,-32.05007,-1.222638,-0.07329755,0.3022771,54.12741,9.780845,-0.2868981,1002.188
2.540293693,-45.29053,-103.1751,-32.90736,-1.205621,-0.1213816,0.2846167,54.12741,9.780845,-0.2868981,1002.188
2.545349121,-44.43236,-110.5073,-34.5607,-1.17866,-0.1643863,0.2976315,54.12741,9.780845,-0.2868981,1002.188
2.550404549,-43.02252,-115.9004,-36.21405,-1.160825,-0.1897852,0.2934661,54.07845,11.25871,-1.636605,1002.188
2.555459976,-41.61267,-119.9604,-37.68369,-1.134071,-0.1995962,0.2666324,54.07845,11.25871,-1.636605,1002.188
2.560514927,-38.79299,-121.7783,-38.17357,-1.11315,-0.1886502,0.2111775,54.07845,11.25871,-1.636605,1002.188
2.565570354,-35.05383,-122.8085,-37.92863,-1.103604,-0.1709705,0.1469048,54.07845,11.25871,-1.636605,1002.188
2.570625782,-30.27262,-122.4449,-37.07134,-1.089128,-0.148055,0.09660246,54.07845,11.25871,-1.636605,1002.188
2.575681209,-24.69454,-122.0813,-35.418,-1.087427,-0.1171224,0.04758214,54.07845,11.25871,-1.636605,1002.188
2.580736160,-19.42295,-122.1419,-33.1523,-1.108359,-0.1028919,0.01367142,54.07845,11.25871,-1.636605,1002.188
2.585791588,-14.94823,-122.3237,-30.09055,-1.12944,-0.07457899,-0.01844374,54.07845,11.25871,-1.636605,1002.188
2.590847015,-11.39297,-122.5055,-26.53892,-1.154383,-0.04975016,-0.05013219,54.07845,11.25871,-1.636605,1002.188
2.595902443,-9.492748,-122.6267,-22.25246,-1.180201,-0.02465097,-0.06840039,55.10839,12.38889,-6.907802,1002.188
2.600957394,-8.45069,-122.0813,-17.72107,-1.203987,0.01839013,-0.1125633,55.10839,12.38889,-6.907802,1002.188
2.606012821,-8.144202,-120.2634,-12.76103,-1.227756,0.06711182,-0.1460494,55.10839,12.38889,-6.907802,1002.188
2.611068249,-9.002368,-117.5972,-8.168406,-1.254581,0.119825,-0.1899377,55.10839,12.38889,-6.907802,1002.188
2.616123199,-10.8413,-113.8401,-3.392074,-1.290658,0.1685173,-0.2367133,55.10839,12.38889,-6.907802,1002.188
2.621178627,-13.53839,-110.2043,0.649438,-1.310085,0.210273,-0.2871738,55.10839,12.38889,-6.907802,1002.188
2.626234054,-16.35807,-106.0837,4.507245,-1.334312,0.2475043,-0.333874,55.10839,12.38889,-6.907802,1002.188
2.631289482,-19.72944,-102.6297,7.752701,-1.328398,0.256991,-0.3753403,55.10839,12.38889,-6.907802,1002.188
2.636344433,-22.67172,-99.2363,10.32457,-1.310997,0.2585805,-0.3950933,55.10839,12.38889,-6.907802,1002.188
2.641399860,-26.59477,-97.2366,11.73298,-1.297723,0.2329383,-0.4212444,55.10839,12.38889,-6.907802,1002.188
2.646455288,-32.47934,-96.08526,13.38632,-1.248484,0.2220511,-0.4459242,55.03033,13.11914,-12.61864,1002.188
2.651510715,-38.67039,-95.47929,14.61102,-1.197893,0.2266338,-0.4620849,55.03033,13.11914,-12.61864,1002.188
2.656565666,-44.61625,-94.63094,16.75425,-1.163959,0.2443553,-0.466264,55.03033,13.11914,-12.61864,1002.188
2.661621094,-50.9912,-94.20676,19.14242,-1.174033,0.2923617,-0.4347873,55.03033,13.11914,-12.61864,1002.188
2.666676521,-61.47308,-94.44914,17.85648,-1.220206,0.2840437,-0.3584404,55.03033,13.11914,-12.61864,1002.188
2.671731472,-73.61,-95.17631,17.67278,-1.182445,0.2539744,-0.3183887,55.03033,13.11914,-12.61864,1002.188
2.676786899,-84.58227,-95.72168,19.38736,-1.176755,0.2791468,-0.3024827,55.03033,13.11914,-12.61864,1002.188
2.681842327,-92.91874,-95.60049,20.79576,-1.135923,0.2745363,-0.2689944,55.03033,13.11914,-12.61864,1002.188
2.686897755,-99.90666,-94.87332,23.12269,-1.128924,0.3114502,-0.2556748,55.03033,13.11914,-12.61864,1002.188
2.691952705,-104.2588,-93.29781,25.14345,-1.087918,0.3269509,-0.2326883,55.03033,13.11914,-12.61864,1002.188
2.697008133,-107.1398,-91.2981,27.47038,-1.061612,0.3427642,-0.2162575,55.338,13.79963,-17.04926,1002.188
2.702063560,-108.7335,-89.66199,29.67484,-1.041564,0.3502058,-0.2009377,55.338,13.79963,-17.04926,1002.188
2.707118988,-110.3272,-87.84409,32.00177,-1.021554,0.3620032,-0.1840707,55.338,13.79963,-17.04926,1002.188
2.712173939,-111.3693,-85.5414,33.90006,-1.006806,0.3568414,-0.1785962,55.338,13.79963,-17.04926,1002.188
2.717229366,-113.1469,-82.99634,35.49217,-0.9930938,0.3522467,-0.1798001,55.338,13.79963,-17.04926,1002.188
2.722284794,-115.9053,-80.51186,36.71687,-0.9851754,0.3407626,-0.1830394,55.338,13.79963,-17.04926,1002.188
2.727339745,-120.38,-77.54262,37.88034,-0.9806284,0.3315122,-0.1770937,55.338,13.79963,-17.04926,1002.188
2.729867935,-123.1997,-75.78531,38.18651,-0.9756842,0.3243434,-0.1797163,55.338,13.79963,-17.04926,1002.188
2.734923363,-130.065,-72.51308,39.34998,-0.9692578,0.3143122,-0.1843408,55.338,13.79963,-17.04926,1002.188
2.739978313,-137.4821,-69.66502,40.51344,-0.9849342,0.3031818,-0.2079344,55.338,13.79963,-17.04926,1002.188
2.745033741,-145.0217,-66.45338,41.61567,-0.992127,0.2875747,-0.2144869,54.19558,13.08459,-21.40169,1002.188
2.750092983,-151.9483,-63.66593,42.96284,-1.001347,0.2739754,-0.2276717,54.19558,13.08459,-21.40169,1002.188
2.755144596,-158.5684,-60.93907,44.43248,-1.001843,0.2644587,-0.2427502,54.19558,13.08459,-21.40169,1002.188
2.760199547,-164.7595,-58.394,46.08583,-0.9904899,0.2563365,-0.2387552,54.19558,13.08459,-21.40169,1002.188
2.765254974,-171.0118,-55.84893,47.67794,-0.9925234,0.2526425,-0.2546287,54.19558,13.08459,-21.40169,1002.188
2.770310402,-176.5286,-54.03103,49.39252,-0.9903681,0.2404005,-0.2468214,54.19558,13.08459,-21.40169,1002.188
2.775365829,-181.6776,-51.66775,51.04587,-0.9887446,0.2287064,-0.2437827,54.19558,13.08459,-21.40169,1002.188
2.780420780,-186.0297,-49.97104,52.45427,-0.9940835,0.2204588,-0.2520806,54.19558,13.08459,-21.40169,1002.19
2.785476208,-189.585,-48.21373,53.67897,-0.9877083,0.2214719,-0.2468488,54.19558,13.08459,-21.40169,1002.19
2.790531635,-192.8951,-46.45642,54.84244,-0.9940088,0.2165117,-0.2483516,54.19558,13.08459,-21.40169,1002.19
2.795587063,-195.2857,-45.24448,55.57726,-0.9967808,0.2109309,-0.2364984,53.41223,13.42982,-24.53993,1002.19
2.800642014,-196.3277,-44.03254,56.18961,-1.006401,0.2052511,-0.226498,53.41223,13.42982,-24.53993,1002.19
2.805697441,-196.6342,-42.76001,56.49578,-1.011249,0.2079581,-0.2182445,53.41223,13.42982,-24.53993,1002.19
2.810752869,-196.5729,-41.91165,56.67949,-1.022819,0.2027142,-0.2072571,53.41223,13.42982,-24.53993,1002.19
2.815807819,-196.2664,-41.18449,56.61826,-1.038593,0.1818047,-0.1951918,53.41223,13.42982,-24.53993,1002.19
2.820863247,-195.8373,-40.69971,56.86319,-1.042771,0.1737085,-0.1795592,53.41223,13.42982,-24.53993,1002.19
2.825918674,-195.2857,-40.03315,57.0469,-1.040049,0.1513332,-0.1768023,53.41223,13.42982,-24.53993,1002.19
2.830974102,-193.9984,-39.30599,56.92443,-1.051421,0.1257269,-0.170643,53.41223,13.42982,-24.53993,1002.19
2.836029053,-192.2821,-38.57882,57.16937,-1.071064,0.1056325,-0.1527754,53.41223,13.42982,-24.53993,1002.19
2.841084480,-191.1787,-37.85166,57.23061,-1.085106,0.1018304,-0.1436429,53.0184,13.41636,-26.71819,1002.19
2.846139908,-190.1367,-37.54868,57.16937,-1.092055,0.07434645,-0.1366157,53.0184,13.41636,-26.71819,1002.19
2.851195335,-188.1751,-37.36689,57.78172,-1.093603,0.04309301,-0.1311715,53.0184,13.41636,-26.71819,1002.19
2.856250286,-185.9684,-36.88211,58.39407,-1.113834,0.02840986,-0.1179484,53.0184,13.41636,-26.71819,1002.19
2.861305714,-184.0069,-36.21555,59.25136,-1.132632,0.01000459,-0.1144084,53.0184,13.41636,-26.71819,1002.188
2.881531715,-177.5094,-36.33674,62.25188,-1.172542,-0.06275123,-0.08188868,53.0184,13.41636,-26.71819,1002.188
2.886582375,-176.7738,-36.57913,62.86423,-1.16954,-0.06331018,-0.0733137,53.0184,13.41636,-26.71819,1002.188
2.891637325,-176.5286,-37.00331,63.17041,-1.178928,-0.0860822,-0.05896233,52.62144,13.71193,-28.51205,1002.188
2.896692753,-176.406,-37.60928,63.17041,-1.17438,-0.09771475,-0.05642843,52.62144,13.71193,-28.51205,1002.188
2.901748180,-176.7125,-38.33644,63.41534,-1.173044,-0.1135983,-0.03386457,52.62144,13.71193,-28.51205,1002.188
2.906804085,-176.8351,-39.54837,62.74176,-1.162073,-0.1290669,-0.0271801,52.62144,13.71193,-28.51205,1002.188
2.911859512,-176.4673,-41.30568,62.37435,-1.147183,-0.1421088,-0.01520471,52.62144,13.71193,-28.51205,1002.188
2.916914463,-175.5479,-42.69941,61.70076,-1.139699,-0.1508466,-0.007358715,52.62144,13.71193,-28.51205,1002.188
2.921969891,-175.0575,-43.91135,60.78224,-1.13025,-0.153381,0.01115894,52.62144,13.71193,-28.51205,1002.188
2.927025318,-174.5671,-45.42627,59.37383,-1.123676,-0.1674936,0.0193557,52.62144,13.71193,-28.51205,1002.188
2.932080746,-174.2606,-46.8806,57.59801,-1.114187,-0.1834335,0.02316968,52.62144,13.71193,-28.51205,1002.188
2.937135696,-174.0154,-48.7591,55.8222,-1.100135,-0.2086519,0.03484353,52.62144,13.71193,-28.51205,1002.188
2.942194462,-173.2798,-49.97104,53.74021,-1.094499,-0.2261871,0.04296217,52.21895,14.06851,-30.69094,1002.188
2.947246552,-172.2991,-51.60715,51.41328,-1.079475,-0.2566169,0.04635558,52.21895,14.06851,-30.69094,1002.188
2.952301979,-170.215,-52.87969,48.71894,-1.06651,-0.2826001,0.04270015,52.21895,14.06851,-30.69094,1002.188
2.957356930,-167.8857,-54.27341,46.39201,-1.054442,-0.3106529,0.04618191,52.21895,14.06851,-30.69094,1002.188
2.959884167,-166.5371,-54.93998,44.92236,-1.043627,-0.3205953,0.04103947,52.21895,14.06851,-30.69094,1002.188
2.964939594,-163.2883,-55.84893,42.28926,-1.024257,-0.3508585,0.03865098,52.21895,14.06851,-30.69094,1002.188
2.969995022,-159.8557,-56.6367,39.83986,-1.003471,-0.3729116,0.0422028,52.21895,14.06851,-30.69094,1002.188
2.975050449,-156.5456,-57.00027,37.45169,-0.9856859,-0.396788,0.03376782,52.21895,14.06851,-30.69094,1002.188
2.980105400,-152.929,-57.36386,35.18599,-0.966466,-0.4167748,0.02733314,52.21895,14.06851,-30.69094,1002.188
2.985161304,-149.1899,-57.54565,33.16524,-0.9497962,-0.4251773,0.0240895,52.21895,14.06851,-30.69094,1002.186
2.990216255,-145.4507,-57.24266,30.89954,-0.9361072,-0.4316326,0.01709349,51.03579,15.88511,-33.31552,1002.186
2.995271683,-142.4472,-56.5761,28.94002,-0.9243578,-0.4300543,0.02372508,51.03579,15.88511,-33.31552,1002.186
3.000326633,-139.3823,-55.90953,26.67432,-0.8960403,-0.4338335,0.01857381,51.03579,15.88511,-33.31552,1002.186
3.005382061,-136.44,-55.06118,24.89851,-0.867312,-0.4298435,0.01505238,51.03579,15.88511,-33.31552,1002.186
3.010437489,-133.3751,-53.90984,23.3064,-0.8619563,-0.423055,0.02331308,51.03579,15.88511,-33.31552,1002.186
3.015492439,-129.7586,-53.30387,21.65305,-0.8611206,-0.4113507,0.02264513,51.03579,15.88511,-33.31552,1002.186
3.020547867,-126.3872,-51.84954,20.24465,-0.8602251,-0.3973773,0.03304562,51.03579,15.88511,-33.31552,1002.186
3.025603771,-122.8932,-50.7588,18.83624,-0.8535882,-0.3849857,0.0261165,51.03579,15.88511,-33.31552,1002.186
3.030659199,-119.4606,-48.94089,17.55031,-0.8432866,-0.3858452,0.03126357,51.03579,15.88511,-33.31552,1002.186
3.035714626,-116.457,-47.12299,16.75425,-0.8463358,-0.3680609,0.04227694,51.03579,15.88511,-33.31552,1002.186
3.040769577,-113.5147,-44.8203,15.65202,-0.842122,-0.3509857,0.04458608,49.49476,17.32262,-35.55163,1002.186
3.045825005,-111.6145,-42.82061,14.97844,-0.8480454,-0.3419251,0.04965988,49.49476,17.32262,-35.55163,1002.186
3.050880432,-109.5304,-41.36628,15.10091,-0.829483,-0.3316522,0.003785147,49.49476,17.32262,-35.55163,1002.186
3.055935860,-106.0977,-39.66957,16.26437,-0.8245548,-0.2650388,0.04612555,49.49476,17.32262,-35.55163,1002.186
3.060990810,-101.8069,-39.73017,18.77501,-0.8461457,-0.2285633,0.08603568,49.49476,17.32262,-35.55163,1002.186
3.066046238,-98.9872,-39.24539,22.02046,-0.8694421,-0.1450507,0.1022622,49.49476,17.32262,-35.55163,1002.186
3.071101666,-99.17109,-38.57882,25.14345,-0.8634378,-0.07146318,0.1677498,49.49476,17.32262,-35.55163,1002.186
3.076157093,-102.665,-39.42718,28.63385,-0.8617224,0.003754785,0.2491183,49.49476,17.32262,-35.55163,1002.186
3.081212044,-109.1626,-38.94241,32.06301,-0.8738829,0.0596292,0.3377864,49.49476,17.32262,-35.55163,1002.186
3.086267471,-114.0051,-37.79107,35.85958,-0.8899909,0.086471,0.3778786,48.29517,20.2509,-37.27995,1002.186
3.091322899,-115.1698,-37.60928,40.02356,-0.9051729,0.1124713,0.4102806,48.29517,20.2509,-37.27995,1002.186
3.096377850,-110.8176,-37.1851,44.37125,-0.9193799,0.145119,0.3897007,48.29517,20.2509,-37.27995,1002.186
3.101433277,-100.0293,-37.79107,48.10659,-0.939702,0.1643691,0.378892,48.29517,20.2509,-37.27995,1002.186
3.106488705,-85.86951,-37.0639,50.49475,-0.9572666,0.1607012,0.374656,48.29517,20.2509,-37.27995,1002.186
3.111544132,-72.38405,-34.57943,50.9234,-0.9730881,0.1541626,0.4019284,48.29517,20.2509,-37.27995,1002.186
3.116599083,-59.69546,-30.09526,49.75993,-0.9704113,0.1147697,0.4363297,48.29517,20.2509,-37.27995,1002.186
3.121654511,-47.80373,-22.52065,47.37177,-0.9566197,0.07249521,0.514598,48.29517,20.2509,-37.27995,1002.186
3.126709938,-39.09947,-13.73411,44.86113,-0.9388291,0.02392874,0.5955412,48.29517,20.2509,-37.27995,1002.186
3.131765366,-34.50216,-5.250543,42.7179,-0.9252875,-0.03926712,0.6732802,48.29517,20.2509,-37.27995,1002.186
3.136820316,-32.96972,1.233323,41.06456,-0.9214318,-0.09187172,0.7140372,47.14387,21.70121,-37.72272,1002.186
3.141875744,-32.78582,5.596298,39.59492,-0.9281223,-0.1398311,0.7238929,47.14387,21.70121,-37.72272,1002.186
3.146931171,-32.29544,7.535398,38.61515,-0.9289232,-0.1758792,0.6928228,47.14387,21.70121,-37.72272,1002.186
3.151987076,-32.47934,8.26256,37.75787,-0.9262123,-0.2058904,0.6202214,47.14387,21.70121,-37.72272,1002.186
3.157041550,-34.74734,9.959272,37.6354,-0.9198305,-0.2130207,0.5515181,47.14387,21.70121,-37.72272,1002.186
3.162096977,-38.79299,10.32285,37.69663,-0.9056783,-0.2146983,0.4857525,47.14387,21.70121,-37.72272,1002.186
3.167152405,-42.89992,9.171514,37.75787,-0.8666689,-0.2058548,0.4305519,47.14387,21.70121,-37.72272,1002.186
3.172207356,-45.29053,8.626142,38.18651,-0.8411177,-0.2000294,0.3979031,47.14387,21.70121,-37.72272,1002.186
3.177262783,-45.9648,7.777785,39.0438,-0.7976224,-0.1803282,0.3707037,47.14387,21.70121,-37.72272,1002.186
3.182318211,-44.18717,6.323461,40.63591,-0.7519672,-0.1552632,0.3780904,47.14387,21.70121,-37.72272,1002.186
3.184845924,-41.79657,5.656895,41.98308,-0.7213277,-0.1335462,0.3955878,46.78578,20.95064,-38.16761,1002.186
3.189901352,-31.37598,8.383754,45.65718,-0.6452456,-0.1096975,0.3590895,46.78578,20.95064,-38.16761,1002.186
3.194956780,-14.33526,14.92822,49.08635,-0.5555919,-0.1006554,0.288095,46.78578,20.95064,-38.16761,1002.188
3.200012207,5.096072,18.07925,53.12786,-0.5298139,-0.1000112,0.2768564,46.78578,20.95064,-38.16761,1002.188
3.205067158,21.83031,15.47359,57.10814,-0.5919673,-0.05609308,0.3221266,46.78578,20.95064,-38.16761,1002.188
3.210122585,35.68356,11.2924,58.39407,-0.6630351,0.03733709,0.2993202,46.78578,20.95064,-38.16761,1002.188
3.215178013,43.95873,16.01896,55.76096,-0.6647766,0.1248306,0.2058095,46.78578,20.95064,-38.16761,1002.188
3.220233440,40.21958,32.6831,48.474,-0.7215267,0.1495886,-0.02378398,46.78578,20.95064,-38.16761,1002.188
3.225288391,25.14038,53.83141,37.45169,-0.9280591,0.08391764,-0.314104,46.78578,20.95064,-38.16761,1002.188
3.230343819,7.547975,71.70749,24.04122,-1.22297,-0.01703917,-0.5341086,46.78578,20.95064,-38.16761,1002.188
3.235399246,-2.382231,84.12985,10.75322,-1.500387,-0.1587572,-0.5116289,47.16029,20.58952,-38.61898,1002.19
3.240454197,-4.895431,88.06865,2.486489,-1.726346,-0.2750492,-0.2376439,47.16029,20.58952,-38.61898,1002.19
3.245509625,-3.792075,77.52479,-0.5752626,-1.866483,-0.3728312,0.2394706,47.16029,20.58952,-38.61898,1002.19
3.250565052,-0.543304,54.86156,-0.7589677,-1.969343,-0.4378591,0.8506373,47.16029,20.58952,-38.61898,1002.19
3.255620480,-1.278875,27.22938,-1.248848,-2.132609,-0.3758692,1.353575,47.16029,20.58952,-38.61898,1002.19
3.260675430,-18.197,5.717492,-2.840959,-2.186821,-0.2554063,1.5295,47.16029,20.58952,-38.61898,1002.19
3.265730858,-57.36615,-5.008155,-3.881954,-2.032751,-0.2304754,1.353932,47.16029,20.58952,-38.61898,1002.19
3.270787716,-102.9102,-7.795612,-0.8814377,-1.767963,-0.3556648,1.00546,47.16029,20.58952,-38.61898,1002.19
3.275841713,-124.2418,-7.674418,5.242065,-1.498036,-0.34905,0.6353937,47.16029,20.58952,-38.61898,1002.192
3.280896664,-109.9595,-4.280993,11.05939,-1.28474,-0.2116944,0.2711005,47.16029,20.58952,-38.61898,1002.192
3.285955906,-74.16168,2.566454,12.40656,-1.085341,-0.1174098,-0.06112192,49.07606,19.16238,-36.00089,1002.192
3.291007519,-36.89276,11.353,9.957163,-0.7701011,-0.1744433,-0.3489735,49.07606,19.16238,-36.00089,1002.192
3.296062470,-5.814895,21.53328,7.324056,-0.4979466,-0.2619349,-0.5730388,49.07606,19.16238,-36.00089,1002.192
3.301117897,22.87237,31.77415,4.997125,-0.3382173,-0.3534525,-0.6338462,49.07606,19.16238,-36.00089,1002.192
3.306173325,55.48267,43.52994,5.79318,-0.2832904,-0.4214463,-0.6399235,49.07606,19.16238,-36.00089,1002.192
3.311228752,83.37306,52.61947,10.75322,-0.3089917,-0.4812272,-0.6440724,49.07606,19.16238,-36.00089,1002.192
3.316283703,93.24197,57.952,17.06042,-0.4171047,-0.4755777,-0.6022128,49.07606,19.16238,-36.00089,1002.193
3.321339130,81.53413,60.55766,22.02046,-0.5563901,-0.3783047,-0.477778,49.07606,19.16238,-36.00089,1002.193
3.326394558,55.23748,62.07259,25.08221,-0.7329653,-0.1590789,-0.3216451,49.07606,19.16238,-36.00089,1002.193
3.331449986,29.00212,64.73885,26.30692,-0.9571798,0.1563121,-0.3100739,49.0462,20.64334,-35.55433,1002.193
3.336504936,14.4133,68.79884,25.87827,-1.141448,0.4568343,-0.3940514,49.0462,20.64334,-35.55433,1002.193
3.341560364,13.06476,74.19196,25.14345,-1.267362,0.6913081,-0.4797803,49.0462,20.64334,-35.55433,1002.193
3.346619606,20.35917,78.79733,23.85751,-1.34321,0.8263186,-0.4904734,49.0462,20.64334,-35.55433,1002.193
3.351671219,28.26655,80.49403,20.61206,-1.380535,0.8194749,-0.4041189,49.0462,20.64334,-35.55433,1002.193
3.356726170,25.38557,80.19106,16.01943,-1.389748,0.7017922,-0.2576515,49.0462,20.64334,-35.55433,1002.196
3.361781597,9.264306,77.40359,10.26334,-1.358935,0.5063294,-0.1647659,49.0462,20.64334,-35.55433,1002.196
3.366837025,-14.76434,74.37375,5.242065,-1.2918,0.3272633,-0.1474499,49.0462,20.64334,-35.55433,1002.196
3.371891975,-37.56704,71.5863,1.139318,-1.215919,0.1745764,-0.1587502,49.0462,20.64334,-35.55433,1002.196
3.376947403,-55.52722,69.526,-2.657254,-1.15516,0.0934063,-0.1877189,49.0462,20.64334,-35.55433,1002.196
3.382002831,-68.52231,68.19287,-5.841475,-1.11458,0.03074579,-0.2102814,50.23004,18.82685,-32.86559,1002.196
3.387058258,-76.98137,67.16272,-7.678526,-1.085057,-0.006289609,-0.2354394,50.23004,18.82685,-32.86559,1002.196
3.392117977,-82.37556,65.89019,-8.107171,-1.063668,-0.05187432,-0.2521202,50.23004,18.82685,-32.86559,1002.196
3.397169113,-85.07265,64.98124,-8.413346,-1.053134,-0.07934788,-0.256748,50.23004,18.82685,-32.86559,1002.197
3.402224541,-85.93082,64.79945,-8.168406,-1.043511,-0.1060082,-0.2517715,50.23004,18.82685,-32.86559,1002.197
3.407279968,-85.74692,65.82959,-8.352111,-1.03784,-0.1269406,-0.2442183,50.23004,18.82685,-32.86559,1002.197
3.412335396,-83.7241,67.40511,-7.923466,-1.021103,-0.1321366,-0.233976,50.23004,18.82685,-32.86559,1002.197
3.414862633,-82.00777,68.37466,-7.494821,-1.02155,-0.1298412,-0.2252958,50.23004,18.82685,-32.86559,1002.197
3.419918060,-76.61359,70.49555,-6.882471,-1.02489,-0.1205243,-0.2015686,50.23004,18.82685,-32.86559,1002.197
3.424973011,-69.44177,72.85883,-5.963945,-1.029422,-0.1017804,-0.1914743,50.23004,18.82685,-32.86559,1002.197
3.430028439,-61.53438,75.46449,-4.43307,-1.028769,-0.1096939,-0.1821065,52.1246,18.51062,-29.8003,1002.197
3.435083866,-53.5044,77.40359,-2.902194,-1.040228,-0.1203793,-0.1650346,52.1246,18.51062,-29.8003,1002.197
3.440138817,-46.82297,79.46389,-1.861198,-1.032262,-0.1210028,-0.1459756,52.1246,18.51062,-29.8003,1002.197
3.445194244,-40.50932,81.40299,-1.065143,-1.055861,-0.1520235,-0.1508497,52.1246,18.51062,-29.8003,1002.197
3.450249672,-34.56345,82.85732,-0.1466174,-1.036426,-0.1581266,-0.1090582,52.1246,18.51062,-29.8003,1002.197
3.455305100,-29.41446,83.94806,0.3432629,-1.040502,-0.1778383,-0.09755179,52.1246,18.51062,-29.8003,1002.197
3.460360050,-23.16211,85.46298,0.9556131,-1.029578,-0.1917914,-0.09465839,52.1246,18.51062,-29.8003,1002.197
3.465415478,-15.92899,86.61432,1.200553,-1.020891,-0.1866868,-0.09987707,52.1246,18.51062,-29.8003,1002.197
3.470470905,-7.96031,87.70506,1.751668,-1.005843,-0.1838745,-0.1066504,52.1246,18.51062,-29.8003,1002.197
3.475526333,0.008374126,89.58356,1.874139,-1.002273,-0.1802875,-0.0816978,52.1246,18.51062,-29.8003,1002.197
3.480581284,8.344843,91.58327,1.567963,-1.016676,-0.186714,-0.06018106,52.8592,20.01475,-27.17841,1002.197
3.485636711,16.37482,93.40117,-0.02414734,-1.032757,-0.1746801,-0.03865806,52.8592,20.01475,-27.17841,1002.197
3.490692139,22.1368,93.27998,-5.65777,-1.11723,-0.1452272,0.002625527,52.8592,20.01475,-27.17841,1002.197
3.495751381,23.11756,92.55281,-5.474065,-0.9263219,-0.2355466,-0.001953292,52.8592,20.01475,-27.17841,1002.197
3.500802517,33.41555,93.76476,-2.289844,-0.9175065,-0.2092946,-0.02195585,52.8592,20.01475,-27.17841,1002.197
3.505858421,46.28804,95.09789,-3.698249,-1.000383,-0.194379,-0.04808229,52.8592,20.01475,-27.17841,1002.197
3.510913849,54.01153,94.8555,-5.474065,-1.020761,-0.1849857,-0.01796822,52.8592,20.01475,-27.17841,1002.197
3.515969276,56.64732,94.12833,-7.066176,-1.026366,-0.1527487,-0.0003395746,52.8592,20.01475,-27.17841,1002.197
3.521024704,57.01511,93.82535,-8.290876,-1.012291,-0.1004879,0.004206819,52.8592,20.01475,-27.17841,1002.196
3.526081562,57.68938,92.7952,-9.515576,-1.004268,-0.0379749,-0.0009828433,52.8592,20.01475,-27.17841,1002.196
3.531135082,58.30236,91.76505,-10.2504,-0.9959284,-0.00366209,-0.007370945,54.02206,19.68066,-23.20911,1002.196
3.536190510,57.62809,90.18954,-10.74028,-0.9890393,0.03535963,-0.005008097,54.02206,19.68066,-23.20911,1002.196
3.541245460,55.11488,88.9776,-11.35263,-0.9854573,0.070307,0.005421278,54.02206,19.68066,-23.20911,1002.196
3.546300888,51.92741,88.00805,-11.78127,-0.9862712,0.1008945,0.009078851,54.02206,19.68066,-23.20911,1002.196
3.551356316,47.57528,87.0385,-12.02621,-0.9915317,0.1338812,0.009488162,54.02206,19.68066,-23.20911,1002.196
3.556411743,43.77483,86.12955,-12.39362,-1.002563,0.1523173,-0.0004716013,54.02206,19.68066,-23.20911,1002.196
3.561466694,39.72919,84.91761,-12.57733,-0.9982618,0.1620904,0.002129891,54.02206,19.68066,-23.20911,1002.196
3.566522121,35.37707,83.82687,-13.12844,-1.002666,0.1601269,-0.00218716,54.02206,19.68066,-23.20911,1002.196
3.571577549,29.98289,82.67552,-13.06721,-1.00635,0.1429831,0.0007632421,54.02206,19.68066,-23.20911,1002.196
3.576632976,24.77259,81.03941,-12.82227,-1.014913,0.1305058,0.01105966,55.53822,20.09637,-19.24401,1002.196
3.581687927,19.4397,79.70628,-12.8835,-1.024066,0.1182101,0.008439928,55.53822,20.09637,-19.24401,1002.196
3.586743355,13.80033,78.00957,-12.6998,-1.032451,0.1144122,-0.008333696,55.53822,20.09637,-19.24401,1002.196
3.591798782,8.773926,76.07047,-12.8835,-1.025473,0.1066521,-0.001415575,55.53822,20.09637,-19.24401,1002.196
3.596853733,3.624931,74.25256,-13.25091,-1.027569,0.1106901,-0.01374074,55.53822,20.09637,-19.24401,1002.196
3.601909161,-1.033684,72.01048,-13.61832,-1.033336,0.1027997,-0.01388674,55.53822,20.09637,-19.24401,1002.197
3.606964588,-5.324514,69.526,-13.49585,-1.030351,0.1017968,-0.008195406,55.53822,20.09637,-19.24401,1002.197
3.612020016,-8.573285,67.52631,-13.37338,-1.043457,0.09951425,-0.001905736,55.53822,20.09637,-19.24401,1002.197
3.617074966,-10.47351,65.34482,-12.8835,-1.053027,0.09469413,0.01577611,55.53822,20.09637,-19.24401,1002.197
3.622130394,-11.94465,63.46631,-12.27115,-1.063619,0.09232281,0.03113609,55.53822,20.09637,-19.24401,1002.197
3.627185821,-13.1706,60.73946,-11.16892,-1.066218,0.08070827,0.05623941,55.94638,20.11216,-15.71854,1002.197
3.632241249,-14.33526,58.0126,-9.882987,-1.056494,0.05957311,0.08242056,55.94638,20.11216,-15.71854,1002.197
3.637296200,-15.19342,55.52812,-8.535816,-1.052301,0.04149614,0.09245409,55.94638,20.11216,-15.71854,1002.197
3.642351627,-15.62251,53.58902,-7.372351,-1.051563,0.02247469,0.09627248,55.94638,20.11216,-15.71854,1002.199
3.644879818,-15.49991,52.80127,-6.698766,-1.049063,0.01526753,0.09319315,55.94638,20.11216,-15.71854,1002.199
3.649934769,-15.25472,49.89261,-5.78024,-1.044911,-0.01035061,0.0867578,55.94638,20.11216,-15.71854,1002.199
3.654990196,-15.13212,47.58993,-4.43307,-1.050264,-0.0242858,0.0682616,55.94638,20.11216,-15.71854,1002.199
3.660045624,-15.19342,45.22665,-3.514544,-1.04899,-0.06052358,0.05248725,55.94638,20.11216,-15.71854,1002.199
3.665101051,-14.39655,42.74218,-2.289844,-1.04505,-0.08098878,0.02655596,55.94638,20.11216,-15.71854,1002.199
3.670156002,-13.10931,41.04547,-1.310083,-1.030305,-0.1013812,0.009141934,55.94638,20.11216,-15.71854,1002.199
3.675211430,-11.27038,40.5001,-0.3915575,-1.01753,-0.1217746,-0.01064725,55.58253,21.2179,-12.63816,1002.199
3.680266857,-9.002368,40.01532,-0.08538236,-1.005785,-0.1368507,-0.02933406,55.58253,21.2179,-12.63816,1002.199
3.685321808,-6.550466,40.62129,-0.7589677,-1.000449,-0.1466882,-0.0483059,55.58253,21.2179,-12.63816,1002.199
3.690377235,-4.466348,41.59084,-1.555023,-1.002823,-0.1525697,-0.04843294,55.58253,21.2179,-12.63816,1002.199
3.695432663,-2.259636,42.98457,-2.289844,-1.008767,-0.1491826,-0.05451445,55.58253,21.2179,-12.63816,1002.199
3.700488090,0.7439449,44.56009,-2.840959,-1.010816,-0.1457086,-0.06158811,55.58253,21.2179,-12.63816,1002.199
3.705543041,3.931418,45.65083,-3.208369,-1.023282,-0.1278285,-0.06867591,55.58253,21.2179,-12.63816,1002.199
3.710598469,8.40614,46.98396,-3.575779,-1.026261,-0.125409,-0.07145878,55.58253,21.2179,-12.63816,1002.199
3.715653896,13.43254,48.1959,-3.759484,-1.029416,-0.1055239,-0.07092359,55.58253,21.2179,-12.63816,1002.199
3.720711231,18.58154,49.28664,-3.759484,-1.034571,-0.09129929,-0.08487595,55.58253,21.2179,-12.63816,1002.199
3.725764275,22.44328,50.37739,-3.881954,-1.040045,-0.0778738,-0.07825921,55.96749,21.22992,-11.29388,1002.201
3.730819702,25.07908,51.52873,-3.881954,-1.049347,-0.06989892,-0.0698298,55.96749,21.22992,-11.29388,1002.201
3.735875130,26.48892,52.68007,-4.310599,-1.06075,-0.06358786,-0.08296671,55.96749,21.22992,-11.29388,1002.201
3.740930080,27.46968,53.64962,-4.43307,-1.077766,-0.06735975,-0.07955045,55.96749,21.22992,-11.29388,1002.201
3.745985508,28.20526,54.1344,-5.04542,-1.098404,-0.05795833,-0.08294645,55.96749,21.22992,-11.29388,1002.201
3.751040935,28.94083,54.31618,-5.65777,-1.118996,-0.05626052,-0.09180496,55.96749,21.22992,-11.29388,1002.201
3.756096363,29.92159,53.40723,-6.453825,-1.127257,-0.05457566,-0.08450274,55.96749,21.22992,-11.29388,1002.201
3.761151314,31.14754,52.37709,-7.127411,-1.121907,-0.06205922,-0.09814861,55.96749,21.22992,-11.29388,1002.201
3.766206741,32.37349,50.68037,-7.433586,-1.107526,-0.04749926,-0.1103621,55.96749,21.22992,-11.29388,1002.205
3.771262169,33.17036,48.74127,-7.556056,-1.111452,-0.0499118,-0.1166101,55.96749,21.22992,-11.29388,1002.205
3.776317596,33.90593,46.13561,-7.127411,-1.12294,-0.04106314,-0.136863,55.9695,22.3446,-8.6655,1002.205
3.781372547,33.53814,43.04517,-7.127411,-1.151753,-0.02680563,-0.1170782,55.9695,22.3446,-8.6655,1002.205
3.786427975,30.96365,39.59114,-7.066176,-1.164487,-0.01029579,-0.09786683,55.9695,22.3446,-8.6655,1002.205
3.791483402,26.48892,37.47025,-7.433586,-1.150822,0.001383449,-0.08094282,55.9695,22.3446,-8.6655,1002.205
3.796538353,22.0755,35.47056,-7.923466,-1.133354,0.00570726,-0.08817935,55.9695,22.3446,-8.6655,1002.205
3.801593780,18.94932,33.41026,-9.270637,-1.123528,-0.001849897,-0.09133682,55.9695,22.3446,-8.6655,1002.205
3.806649208,17.35559,31.47116,-10.18916,-1.120435,-0.009717951,-0.08199094,55.9695,22.3446,-8.6655,1002.203
3.811704636,16.9265,29.89565,-10.86275,-1.126126,-0.01679813,-0.07110576,55.9695,22.3446,-8.6655,1002.203
3.816759586,17.78467,28.8655,-11.23016,-1.130759,-0.02972437,-0.05846412,55.9695,22.3446,-8.6655,1002.203
3.821815014,20.35917,27.59296,-11.10769,-1.135432,-0.03924629,-0.04573561,56.3934,21.24858,-6.100451,1002.203
3.826870441,23.48534,25.47207,-10.86275,-1.145855,-0.06145128,-0.03806259,56.3934,21.24858,-6.100451,1002.203
3.831925869,25.50816,22.9876,-10.18916,-1.152204,-0.08437362,-0.009859917,56.3934,21.24858,-6.100451,1002.203
3.836980820,26.05984,19.71537,-9.454342,-1.156282,-0.1002723,0.007009704,56.3934,21.24858,-6.100451,1002.203
3.842036247,24.89519,17.2309,-9.025697,-1.156301,-0.110672,0.05174842,56.3934,21.24858,-6.100451,1002.203
3.847091675,23.79183,13.89807,-8.719522,-1.140787,-0.119674,0.0872795,56.3934,21.24858,-6.100451,1002.203
3.852146625,24.83389,11.65598,-8.352111,-1.124271,-0.1253736,0.1310238,56.3934,21.24858,-6.100451,1002.203
3.857202053,26.9793,8.989722,-8.045936,-1.127976,-0.1143889,0.1729896,56.3934,21.24858,-6.100451,1002.203
3.862257481,30.59586,5.717492,-8.045936,-1.132761,-0.1051346,0.1991227,56.3934,21.24858,-6.100451,1002.203
3.867312908,33.59944,1.536307,-8.352111,-1.163442,-0.07869257,0.2479601,56.3934,21.24858,-6.100451,1002.203
3.872367859,35.25447,-2.947861,-8.597051,-1.196706,-0.04298509,0.2922698,56.01023,21.97974,-5.649698,1002.203
3.874896049,35.74485,-5.31114,-8.780756,-1.212246,-0.03294393,0.3175671,56.01023,21.97974,-5.649698,1002.203
3.879951477,36.78691,-10.0377,-9.331871,-1.241187,0.0124943,0.3673496,56.01023,21.97974,-5.649698,1002.203
3.885006428,38.99363,-14.64306,-9.576812,-1.276745,0.06546254,0.3934483,56.01023,21.97974,-5.649698,1002.203
3.890061855,41.44553,-20.64215,-9.944221,-1.303717,0.1170587,0.3916633,56.01023,21.97974,-5.649698,1002.205
3.895117283,44.44911,-28.58034,-10.00546,-1.316332,0.1414024,0.3751661,56.01023,21.97974,-5.649698,1002.205
3.900172710,46.59452,-36.82151,-9.638046,-1.310594,0.1417305,0.3602788,56.01023,21.97974,-5.649698,1002.205
3.905227661,48.18826,-44.15374,-9.454342,-1.313295,0.1269729,0.3675894,56.01023,21.97974,-5.649698,1002.205
3.910283089,48.18826,-50.57701,-10.37287,-1.320884,0.1121387,0.3739866,56.01023,21.97974,-5.649698,1002.205
3.915338516,45.36857,-57.12147,-11.59757,-1.342329,0.1026397,0.3643728,56.01023,21.97974,-5.649698,1002.205
3.920393944,40.46477,-65.24145,-13.37338,-1.351751,0.08850157,0.3870828,55.98425,23.08989,-5.651574,1002.205
3.925448894,35.49966,-74.08859,-15.08796,-1.334014,0.07994764,0.3953153,55.98425,23.08989,-5.651574,1002.205
3.930504322,31.82181,-82.51156,-16.55761,-1.311528,0.06601593,0.378471,55.98425,23.08989,-5.651574,1002.208
3.935559750,31.82181,-89.35901,-18.02725,-1.289874,0.05604453,0.323435,55.98425,23.08989,-5.651574,1002.208
3.940614700,33.59944,-95.2369,-19.00701,-1.270625,0.05215224,0.2819813,55.98425,23.08989,-5.651574,1002.208
3.945670128,35.07058,-100.3876,-19.61936,-1.252867,0.04637917,0.2342702,55.98425,23.08989,-5.651574,1002.208
3.950725555,35.31577,-106.2049,-19.31318,-1.241429,0.02615932,0.1685377,55.98425,23.08989,-5.651574,1002.208
3.955780983,35.00928,-112.3858,-19.19071,-1.228815,0.0008259206,0.1208568,55.98425,23.08989,-5.651574,1002.208
3.960835934,34.94799,-118.2637,-18.27219,-1.242401,-0.02766304,0.0891422,55.98425,23.08989,-5.651574,1002.208
3.965891361,35.31577,-124.384,-17.23119,-1.287044,-0.04472064,0.0355103,55.98425,23.08989,-5.651574,1002.208
3.970946789,35.99004,-131.292,-15.51661,-1.329835,-0.04061168,0.0005914662,56.67134,23.84341,-9.122936,1002.208
3.976002216,37.0934,-136.3822,-13.00597,-1.35959,-0.03266228,-0.04727934,56.67134,23.84341,-9.122936,1002.21
3.981058121,41.20034,-139.412,-8.658286,-1.391203,0.006935026,-0.09863704,56.67134,23.84341,-9.122936,1002.21
3.986112595,46.34933,-140.0786,-3.698249,-1.42671,0.03834737,-0.1606985,56.67134,23.84341,-9.122936,1002.21
3.991168499,51.37573,-138.4425,1.506728,-1.470081,0.04499898,-0.2036861,56.67134,23.84341,-9.122936,1002.21
3.996223927,54.13412,-134.5037,7.079116,-1.525982,0.06726854,-0.2653084,56.67134,23.84341,-9.122936,1002.21
4.001279354,52.11131,-130.3831,12.22286,-1.568898,0.05780364,-0.3364775,56.67134,23.84341,-9.122936,1002.21
4.006334305,45.49117,-127.2926,16.50931,-1.573114,0.04878834,-0.3898084,56.67134,23.84341,-9.122936,1002.21
4.011389732,37.0934,-124.8082,20.24465,-1.550094,0.05140409,-0.4387924,56.67134,23.84341,-9.122936,1002.21
4.016445160,27.83747,-122.3843,22.87775,-1.539875,0.05450588,-0.4383315,56.67134,23.84341,-9.122936,1002.21
4.021500587,17.96856,-121.233,24.28616,-1.519475,0.03892034,-0.4121102,56.21788,24.56319,-15.27991,1002.21
4.026555538,6.322023,-120.1422,25.14345,-1.527935,0.0443062,-0.4248197,56.21788,24.56319,-15.27991,1002.21
4.031610966,-6.121383,-119.5968,24.40863,-1.509691,0.06091951,-0.4394113,56.21788,24.56319,-15.27991,1002.21
4.036666393,-17.76792,-119.7786,22.2654,-1.464649,0.05149326,-0.4367254,56.21788,24.56319,-15.27991,1002.21
4.041721344,-29.72095,-120.627,19.93847,-1.453228,0.03610436,-0.4348306,56.21788,24.56319,-15.27991,1002.21
4.046776772,-40.57061,-121.5965,17.55031,-1.436486,-0.002862532,-0.4115628,56.21788,24.56319,-15.27991,1002.21
4.051832199,-50.13304,-124.4446,15.77449,-1.419538,-0.02130255,-0.393999,56.21788,24.56319,-15.27991,1002.21
4.056887627,-57.79523,-126.9897,15.46832,-1.39963,-0.02546537,-0.3512052,56.21788,24.56319,-15.27991,1002.21
4.061942577,-63.98629,-129.3529,15.83572,-1.366517,-0.02134118,-0.2930055,56.21788,24.56319,-15.27991,1002.21
4.066998005,-67.35765,-130.6255,17.06042,-1.316941,-0.002860839,-0.2307665,55.7724,24.91281,-21.50041,1002.21
4.072053432,-67.97063,-129.5347,18.77501,-1.271836,0.00806718,-0.1897423,55.7724,24.91281,-21.50041,1002.21
4.077108860,-65.94781,-128.0198,20.42835,-1.212588,0.01356407,-0.158565,55.7724,24.91281,-21.50041,1002.21
4.082163811,-62.63774,-125.6565,22.44911,-1.160784,0.01724771,-0.1455559,55.7724,24.91281,-21.50041,1002.21
4.087219238,-58.89859,-123.8992,24.16369,-1.129171,0.02708586,-0.1460835,55.7724,24.91281,-21.50041,1002.21
4.092274666,-55.40462,-122.3237,25.57209,-1.071272,0.009966277,-0.1336608,55.7724,24.91281,-21.50041,1002.21
4.097329617,-52.52364,-120.5664,27.34791,-1.024987,-0.02850164,-0.1398635,55.7724,24.91281,-21.50041,1002.208
4.099857330,-50.80731,-119.4757,29.2462,-0.9745852,-0.05019001,-0.15669,55.7724,24.91281,-21.50041,1002.208
4.104913235,-47.98762,-117.9001,32.61412,-1.03767,0.005490978,-0.1508486,55.7724,24.91281,-21.50041,1002.208
4.109968185,-50.86861,-117.173,29.98102,-1.045201,-0.01611663,-0.1470177,55.7724,24.91281,-21.50041,1002.208
4.115023613,-53.4431,-115.8398,28.75632,-1.008608,-0.06108159,-0.1537727,55.7724,24.91281,-21.50041,1002.208
4.120079041,-56.75317,-115.0521,28.94002,-0.9932539,-0.09501863,-0.1758455,55.3679,24.15472,-26.30768,1002.208
4.125134468,-59.94065,-114.5673,29.36867,-0.9643142,-0.1118914,-0.1832504,55.3679,24.15472,-26.30768,1002.208
4.130189419,-62.45385,-113.2342,29.49114,-0.9126101,-0.1170667,-0.1963183,55.3679,24.15472,-26.30768,1002.208
4.135244846,-63.43461,-110.7497,29.98102,-0.9067932,-0.1154562,-0.1992048,55.3679,24.15472,-26.30768,1002.208
4.140300274,-68.21582,-109.5378,31.57313,-0.9172351,-0.06724391,-0.2146372,55.3679,24.15472,-26.30768,1002.208
4.145355701,-73.30351,-108.0834,31.8793,-0.8975866,-0.08330263,-0.2228911,55.3679,24.15472,-26.30768,1002.208
4.150410652,-78.32992,-106.6897,32.61412,-0.899672,-0.07785512,-0.2318293,55.3679,24.15472,-26.30768,1002.208
4.155466080,-83.11113,-105.4778,33.34894,-0.8964807,-0.06261631,-0.2381747,55.3679,24.15472,-26.30768,1002.208
4.160521507,-87.15677,-104.1446,33.59388,-0.8857973,-0.05708083,-0.2371776,55.3679,24.15472,-26.30768,1002.208
4.165576458,-89.79256,-102.4479,33.53265,-0.8751755,-0.05333528,-0.2467578,54.18206,24.85653,-31.6248,1002.208
4.170631886,-91.20241,-100.3876,33.90006,-0.8678235,-0.05040103,-0.2386139,54.18206,24.85653,-31.6248,1002.208
4.175687313,-92.24446,-98.20615,33.53265,-0.8519347,-0.03208561,-0.2397349,54.18206,24.85653,-31.6248,1002.208
4.180746079,-92.79614,-96.26705,32.98153,-0.8293736,-0.03853975,-0.2358034,54.18206,24.85653,-31.6248,1002.208
4.185797691,-92.24446,-93.66138,32.18548,-0.8122893,-0.02965837,-0.2228129,54.18206,24.85653,-31.6248,1002.208
4.190853119,-91.07981,-90.99512,31.20572,-0.8010148,-0.03382632,-0.2230254,54.18206,24.85653,-31.6248,1002.208
4.195908546,-89.85386,-88.57125,30.4709,-0.7819321,-0.03356368,-0.2169753,54.18206,24.85653,-31.6248,1002.208
4.200963974,-88.62791,-85.4808,29.55237,-0.769024,-0.04801622,-0.2107621,54.18206,24.85653,-31.6248,1002.208
4.206018925,-87.76974,-82.75394,29.2462,-0.7440659,-0.05291647,-0.210165,54.18206,24.85653,-31.6248,1002.208
4.211074352,-86.35989,-79.29993,28.08273,-0.7251569,-0.04328638,-0.2124928,54.18206,24.85653,-31.6248,1002.208
4.216129780,-84.88876,-75.8459,26.61309,-0.7064609,-0.05226607,-0.2071527,53.05474,24.08202,-34.69408,1002.208
4.221185207,-83.54021,-71.9071,25.38839,-0.7112083,-0.05879229,-0.1996136,53.05474,24.08202,-34.69408,1002.21
4.226240158,-81.45609,-68.39249,23.97998,-0.7057439,-0.0717244,-0.2066965,53.05474,24.08202,-34.69408,1002.21
4.231295586,-79.24938,-65.48384,23.12269,-0.6940145,-0.09815872,-0.1816265,53.05474,24.08202,-34.69408,1002.21
4.236351013,-77.16526,-61.72683,22.69405,-0.6792601,-0.1000009,-0.1703227,53.05474,24.08202,-34.69408,1002.21
4.241405964,-75.57153,-57.66684,22.69405,-0.6920843,-0.1151824,-0.1471284,53.05474,24.08202,-34.69408,1002.21
4.246461392,-73.61,-53.72804,23.00022,-0.6891057,-0.1133167,-0.1380128,53.05474,24.08202,-34.69408,1002.21
4.251516819,-72.01627,-50.45581,23.12269,-0.6816669,-0.1124479,-0.1217834,53.05474,24.08202,-34.69408,1002.21
4.256572247,-69.50307,-46.69881,23.12269,-0.6908752,-0.0989337,-0.09310648,53.05474,24.08202,-34.69408,1002.21
4.261627197,-67.11246,-43.18419,22.69405,-0.6943268,-0.07655647,-0.06425869,53.05474,24.08202,-34.69408,1002.21
4.266682625,-63.92499,-39.54837,21.89799,-0.6980979,-0.0673546,-0.03334896,50.39682,25.11817,-38.20382,1002.21
4.271738052,-60.73751,-35.73077,22.02046,-0.7027746,-0.06829912,-0.008433565,50.39682,25.11817,-38.20382,1002.21
4.276793480,-58.5921,-32.03436,22.38787,-0.7161943,-0.07043642,0.02036418,50.39682,25.11817,-38.20382,1002.21
4.281848431,-56.87577,-28.39855,22.69405,-0.7207246,-0.08783855,0.03959364,50.39682,25.11817,-38.20382,1002.21
4.286903858,-54.97554,-25.18691,23.18393,-0.7216367,-0.08987974,0.04481668,50.39682,25.11817,-38.20382,1002.21
4.291959286,-51.91066,-22.39946,23.24516,-0.7107213,-0.09096326,0.06575111,50.39682,25.11817,-38.20382,1002.21
4.297014237,-48.5393,-19.7332,23.55134,-0.7397119,-0.09252468,0.101892,50.39682,25.11817,-38.20382,1002.21
4.302069664,-46.0261,-17.55171,23.79628,-0.7397643,-0.1147648,0.1247862,50.39682,25.11817,-38.20382,1002.209
4.307125092,-44.92274,-15.49142,23.61257,-0.7508892,-0.1436847,0.1576691,50.39682,25.11817,-38.20382,1002.209
4.312180519,-44.06458,-13.43112,22.81652,-0.7837399,-0.1544462,0.1859526,50.37562,26.22908,-37.75663,1002.209
4.317240238,-43.32901,-11.18904,21.28564,-0.8081559,-0.1729262,0.220184,50.37562,26.22908,-37.75663,1002.209
4.322291374,-42.71603,-9.128743,19.44859,-0.8283681,-0.2104559,0.2644241,50.37562,26.22908,-37.75663,1002.209
4.327346325,-42.22565,-5.795915,18.16265,-0.8531671,-0.2286636,0.3125499,50.37562,26.22908,-37.75663,1002.209
4.329874039,-41.85786,-3.735621,16.93796,-0.8655888,-0.2432013,0.325703,50.37562,26.22908,-37.75663,1002.209
4.334929466,-40.8771,0.7485478,14.97844,-0.8947734,-0.2791178,0.348525,50.37562,26.22908,-37.75663,1002.209
4.339984894,-41.42878,4.869135,12.59027,-0.9078307,-0.2558194,0.3363141,50.37562,26.22908,-37.75663,1002.209
4.345040321,-43.20641,6.808236,9.895927,-0.9278303,-0.255734,0.3384204,50.37562,26.22908,-37.75663,1002.209
4.350095272,-45.10664,7.293011,7.324056,-0.9280933,-0.2909134,0.3150274,50.37562,26.22908,-37.75663,1002.209
4.355150700,-46.45518,7.898979,6.160591,-0.9305318,-0.2514862,0.311265,50.37562,26.22908,-37.75663,1002.209
4.360206127,-47.19075,7.838382,5.91565,-0.9475181,-0.2129804,0.3186279,50.37562,26.22908,-37.75663,1002.209
4.365261078,-47.98762,7.171817,7.507761,-0.9735916,-0.1231376,0.3637668,49.63437,26.20968,-37.75076,1002.209
4.370316506,-49.58136,7.050623,9.344812,-0.9799729,-0.05415734,0.4618096,49.63437,26.20968,-37.75076,1002.209
4.375371933,-53.38181,7.353607,11.73298,-0.9960474,-0.02400718,0.5737987,49.63437,26.20968,-37.75076,1002.209
4.380427361,-60.06324,8.565544,14.67226,-1.022686,-0.02195052,0.7292189,49.63437,26.20968,-37.75076,1002.209
4.385482311,-69.38047,6.929429,18.89748,-1.101311,-0.02463094,0.9094266,49.63437,26.20968,-37.75076,1002.21
4.390538693,-79.00419,4.20257,24.10245,-1.144228,-0.01164206,0.9968167,49.63437,26.20968,-37.75076,1002.21
4.395593166,-83.04983,0.9303384,30.59337,-1.194024,-0.01729824,0.9880474,49.63437,26.20968,-37.75076,1002.21
4.400648594,-80.41403,-2.887265,37.20675,-1.234923,-0.02161023,0.932789,49.63437,26.20968,-37.75076,1002.21
4.405703545,-72.01627,-7.43203,42.65667,-1.242486,-0.01419316,0.8502247,49.63437,26.20968,-37.75076,1002.21
4.410758972,-59.69546,-10.76486,46.08583,-1.2173,-0.03621686,0.7919764,49.62182,26.95055,-37.30294,1002.21
4.415814400,-43.08382,-13.97649,47.73917,-1.175031,-0.02698189,0.7798427,49.62182,26.95055,-37.30294,1002.21
4.420869827,-25.24622,-15.00664,46.26954,-1.153354,-0.0136669,0.7622624,49.62182,26.95055,-37.30294,1002.21
4.425924778,-9.186261,-15.30962,43.26902,-1.143769,-0.003638395,0.7542878,49.62182,26.95055,-37.30294,1002.209
4.430980206,1.234325,-15.30962,41.00332,-1.107831,-0.01926403,0.7698286,49.62182,26.95055,-37.30294,1002.209
4.436035633,4.666989,-15.06724,39.53368,-1.043271,-0.03593851,0.7606558,49.62182,26.95055,-37.30294,1002.209
4.441091538,0.314862,-14.88545,39.2275,-0.9868921,-0.03111963,0.7358288,49.62182,26.95055,-37.30294,1002.209
4.446146965,-9.186261,-13.8553,39.34998,-0.9515019,-0.03954,0.6917137,49.62182,26.95055,-37.30294,1002.209
4.451201916,-22.05875,-12.15859,39.34998,-0.9083418,-0.05393242,0.6334895,49.62182,26.95055,-37.30294,1002.209
4.456257343,-35.36032,-10.46187,39.59492,-0.8492636,-0.05387183,0.5721309,49.62182,26.95055,-37.30294,1002.209
4.461312771,-45.78091,-8.704565,40.2685,-0.7814254,-0.05741116,0.5019804,50.35442,27.34,-37.30943,1002.209
4.466370583,-52.33975,-5.735318,40.94209,-0.7249939,-0.05891753,0.4118817,50.35442,27.34,-37.30943,1002.209
4.471423149,-55.77241,-1.978312,41.98308,-0.6602477,-0.06216941,0.3838981,50.35442,27.34,-37.30943,1002.209
4.476478577,-52.76883,-0.3421959,44.61619,-0.5756148,-0.03102056,0.3905922,50.35442,27.34,-37.30943,1002.209
4.481534004,-34.44086,7.838382,49.08635,-0.4733626,0.001200386,0.216657,50.35442,27.34,-37.30943,1002.209
4.486588955,-7.653822,16.07956,52.94415,-0.4149238,0.0348572,0.185841,50.35442,27.34,-37.30943,1002.209
4.491644383,11.04194,18.68522,55.45479,-0.446517,0.01220474,0.2951985,50.35442,27.34,-37.30943,1002.209
4.496699810,21.09474,23.1088,57.65925,-0.6454983,0.1233023,0.2343137,50.35442,27.34,-37.30943,1002.209
4.501755238,27.71487,38.31861,52.20933,-0.9266565,0.1788349,-0.1182886,50.35442,27.34,-37.30943,1002.209
4.506810188,25.20167,62.13318,42.47296,-1.164533,0.117034,-0.4785907,50.35442,27.34,-37.30943,1002.213
4.511865616,6.751106,90.97729,30.40966,-1.294265,0.04487747,-0.6955947,50.75103,26.23956,-37.31049,1002.213
4.516921043,-18.80998,114.6101,18.95871,-1.352612,-0.01414234,-0.6280814,50.75103,26.23956,-37.31049,1002.213
4.521975994,-39.52856,120.9122,11.12063,-1.49318,-0.08073433,-0.2851788,50.75103,26.23956,-37.31049,1002.213
4.527031422,-51.60418,105.7629,4.81342,-1.75749,-0.2131652,0.3056935,50.75103,26.23956,-37.31049,1002.213
4.532086849,-55.83371,73.4648,-2.657254,-2.072571,-0.3326296,1.041001,50.75103,26.23956,-37.31049,1002.213
4.537142277,-56.2015,36.98548,-8.352111,-2.451052,-0.2689462,1.555112,50.75103,26.23956,-37.31049,1002.213
4.542197227,-72.38405,7.777785,-10.18916,-2.543737,-0.07809262,1.596746,50.75103,26.23956,-37.31049,1002.213
4.547252655,-133.3138,-8.643969,-9.576812,-2.343607,-0.17028,1.206636,50.75103,26.23956,-37.31049,1002.213
4.552308082,-198.2892,-14.70366,2.180314,-1.832484,-0.5086199,0.6421599,50.75103,26.23956,-37.31049,1002.213
4.554835319,-209.1389,-15.67321,10.50828,-1.565111,-0.5407625,0.3879487,50.75103,26.23956,-37.31049,1002.213
4.559891224,-181.6163,-11.31023,24.83727,-1.220688,-0.4235672,-0.09347596,51.95151,23.68287,-34.68465,1002.213
4.564946651,-117.8668,1.051532,30.28719,-0.914371,-0.423494,-0.5018739,51.95151,23.68287,-34.68465,1002.213
4.570002079,-55.89501,18.92761,26.24568,-0.6228634,-0.5416929,-0.7312114,51.95151,23.68287,-34.68465,1002.213
4.575057030,-7.899012,37.28846,16.38684,-0.2709629,-0.7359838,-0.8409715,51.95151,23.68287,-34.68465,1002.213
4.580112457,38.87103,48.62008,11.36557,-0.1380358,-0.8147442,-0.8767849,51.95151,23.68287,-34.68465,1002.213
4.585171699,85.21199,53.71022,10.32457,-0.2118383,-0.914821,-0.8489479,51.95151,23.68287,-34.68465,1002.213
4.590223312,118.0062,59.28513,15.40708,-0.2714085,-1.006212,-0.7985233,51.95151,23.68287,-34.68465,1002.211
4.595278263,123.0326,66.73855,23.36763,-0.3761793,-0.8989969,-0.6779923,51.95151,23.68287,-34.68465,1002.211
4.600333691,105.9919,74.73734,28.32767,-0.5651181,-0.6116948,-0.5664514,51.95151,23.68287,-34.68465,1002.211
4.605389118,80.49207,79.2821,28.38891,-0.7925139,-0.219756,-0.5361483,51.95151,23.68287,-34.68465,1002.211
4.610444069,60.14128,84.49343,26.36815,-1.002079,0.1638932,-0.547876,53.06041,24.4544,-33.3475,1002.211
4.615499496,50.51757,92.37103,24.16369,-1.189857,0.5439911,-0.5881463,53.06041,24.4544,-33.3475,1002.211
4.620554924,56.09565,100.491,22.63281,-1.305378,0.8773349,-0.6341181,53.06041,24.4544,-33.3475,1002.211
4.625610351,71.78782,104.6722,22.57158,-1.3661,1.041672,-0.6020786,53.06041,24.4544,-33.3475,1002.211
4.630665302,81.84062,104.9752,22.2654,-1.393249,1.056138,-0.4310181,53.06041,24.4544,-33.3475,1002.213
4.635720730,72.40079,102.6725,18.34636,-1.393957,0.9177923,-0.2262696,53.06041,24.4544,-33.3475,1002.213
4.640776157,45.00079,98.5519,12.59027,-1.362523,0.7092358,-0.1356375,53.06041,24.4544,-33.3475,1002.213
4.645831585,10.73545,93.58296,6.40553,-1.281667,0.4832267,-0.1186868,53.06041,24.4544,-33.3475,1002.213
4.650886536,-18.56479,88.917,1.139318,-1.162108,0.3261011,-0.1697706,53.06041,24.4544,-33.3475,1002.213
4.655941963,-38.67039,85.22059,-3.698249,-1.090734,0.1759265,-0.1919758,54.60553,23.01755,-30.72647,1002.213
4.660997391,-52.89143,82.43314,-7.800996,-1.055122,0.05771396,-0.1828691,54.60553,23.01755,-30.72647,1002.213
4.666052341,-64.59926,80.19106,-10.92398,-1.052073,-0.02616725,-0.1668371,54.60553,23.01755,-30.72647,1002.213
4.671107769,-74.34557,77.40359,-12.14868,-1.05615,-0.0696799,-0.1908846,54.60553,23.01755,-30.72647,1002.211
4.676163196,-80.90441,75.3433,-12.20992,-1.062801,-0.0991838,-0.2112004,54.60553,23.01755,-30.72647,1002.211
4.681218624,-83.7241,73.283,-11.59757,-1.051657,-0.105966,-0.2320645,54.60553,23.01755,-30.72647,1002.211
4.686273575,-83.41761,72.37405,-10.80151,-1.05098,-0.0953958,-0.2547825,54.60553,23.01755,-30.72647,1002.211
4.691329002,-80.10754,72.91943,-10.12793,-1.024498,-0.1084729,-0.2587164,54.60553,23.01755,-30.72647,1002.211
4.696384430,-73.11962,74.97972,-9.393106,-1.012494,-0.1249807,-0.2463231,54.60553,23.01755,-30.72647,1002.211
4.701439857,-65.70261,76.73703,-7.862231,-1.018658,-0.121625,-0.2179331,54.60553,23.01755,-30.72647,1002.211
4.706494808,-57.97913,78.55494,-6.453825,-1.024071,-0.1377911,-0.18478,55.80303,21.20327,-26.75468,1002.211
4.711550236,-50.31693,80.37284,-4.55554,-1.02645,-0.1631431,-0.1518891,55.80303,21.20327,-26.75468,1002.211
4.716605663,-43.88068,81.58478,-3.208369,-1.018565,-0.185478,-0.1127947,55.80303,21.20327,-26.75468,1002.211
4.721660614,-38.54779,82.85732,-1.432553,-1.003286,-0.1859509,-0.0947585,55.80303,21.20327,-26.75468,1002.211
4.726716042,-33.70529,84.37224,0.03708769,-0.9860343,-0.1697998,-0.112225,55.80303,21.20327,-26.75468,1002.211
4.731771469,-28.00461,86.00835,1.384258,-0.9794415,-0.1630394,-0.1331806,55.80303,21.20327,-26.75468,1002.211
4.736830234,-22.73302,88.06865,2.364019,-0.9791684,-0.1516822,-0.1439059,55.80303,21.20327,-26.75468,1002.211
4.741881847,-16.72586,91.21968,3.098839,-0.9867634,-0.1165565,-0.1266638,55.80303,21.20327,-26.75468,1002.211
4.746937275,-9.860534,94.12833,2.915134,-0.9847028,-0.1171971,-0.1137732,55.80303,21.20327,-26.75468,1002.211
4.751994133,-2.627421,96.30982,2.731429,-1.004432,-0.1238013,-0.08694438,55.80303,21.20327,-26.75468,1002.211
4.757048130,4.728287,97.82475,1.996608,-1.040856,-0.1257665,-0.06558485,56.16312,23.06852,-23.68141,1002.211
4.762103081,12.45178,98.37012,1.261788,-1.001842,-0.1506556,-0.04504229,56.16312,23.06852,-23.68141,1002.211
4.767161846,21.64642,99.82444,0.771908,-0.9915769,-0.2065958,-0.001079422,56.16312,23.06852,-23.68141,1002.211
4.772213936,31.02494,102.6725,-0.5752626,-1.004043,-0.2181944,0.01071249,56.16312,23.06852,-23.68141,1002.211
4.777269840,39.79049,104.4904,-2.167373,-1.006008,-0.2177303,0.009785355,56.16312,23.06852,-23.68141,1002.211
4.782325268,46.96231,104.7328,-3.392074,-1.011085,-0.2012717,0.009294115,56.16312,23.06852,-23.68141,1002.211
4.784852505,50.21108,104.3692,-4.126894,-1.000514,-0.1864818,0.009570067,56.16312,23.06852,-23.68141,1002.211
4.789907932,56.27954,104.0056,-5.16789,-0.9834696,-0.1475719,-0.0006135139,56.16312,23.06852,-23.68141,1002.211
4.794962883,61.67373,103.5814,-6.331356,-0.9804694,-0.1034145,0.01149169,56.16312,23.06852,-23.68141,1002.215
4.800018311,65.53547,103.4603,-6.882471,-0.9742535,-0.04977656,0.01183859,56.16312,23.06852,-23.68141,1002.215
4.805073738,68.35516,103.3391,-7.494821,-0.9645439,-0.008120312,0.00418791,57.71093,22.74646,-18.36785,1002.215
4.810128689,70.31668,102.8543,-7.862231,-0.9644977,0.0231765,-0.006028471,57.71093,22.74646,-18.36785,1002.215
4.815184116,71.11355,101.9453,-7.617291,-0.9644781,0.0597594,-0.01180147,57.71093,22.74646,-18.36785,1002.215
4.820239544,70.74577,101.097,-7.862231,-0.9666804,0.07351694,-0.02339985,57.71093,22.74646,-18.36785,1002.215
4.825296879,68.96813,99.64265,-7.372351,-0.9824892,0.1002417,-0.007729863,57.71093,22.74646,-18.36785,1002.215
4.830349922,66.76142,98.7337,-8.107171,-0.998211,0.1101427,-0.005893357,57.71093,22.74646,-18.36785,1002.215
4.835405350,63.94173,97.27937,-8.168406,-1.023825,0.123915,-0.01487628,57.71093,22.74646,-18.36785,1002.213
4.840460777,60.57037,95.52206,-8.107171,-1.037016,0.1275037,-0.01083036,57.71093,22.74646,-18.36785,1002.213
4.845516205,56.09565,93.21938,-7.984701,-1.043271,0.1153191,-0.01730468,57.71093,22.74646,-18.36785,1002.213
4.850571156,50.21108,90.8561,-7.494821,-1.048823,0.1303166,-0.01830732,57.71093,22.74646,-18.36785,1002.213
4.855626583,43.71354,88.49282,-7.617291,-1.034731,0.126408,-0.03242372,58.12387,22.76301,-14.39332,1002.213
4.860682011,37.52248,86.12955,-6.882471,-1.02707,0.133017,-0.04190324,58.12387,22.76301,-14.39332,1002.213
4.865741253,31.9444,83.34209,-6.698766,-1.024759,0.1447274,-0.04114872,58.12387,22.76301,-14.39332,1002.213
4.870792389,26.73411,80.13046,-6.208885,-1.025104,0.1606008,-0.0618072,58.12387,22.76301,-14.39332,1002.213
4.875847816,22.1368,76.61584,-5.5353,-1.030581,0.1706997,-0.06054125,58.12387,22.76301,-14.39332,1002.213
4.880903244,18.09116,72.91943,-4.80048,-1.026662,0.1740778,-0.0537899,58.12387,22.76301,-14.39332,1002.213
4.885958195,14.4133,69.70779,-4.310599,-1.031362,0.1669876,-0.04099933,58.12387,22.76301,-14.39332,1002.213
4.891013622,10.79675,66.37496,-3.820719,-1.029502,0.1443822,-0.02387753,58.12387,22.76301,-14.39332,1002.213
4.896069527,7.67057,63.89049,-3.575779,-1.023428,0.1207599,-0.03123784,58.12387,22.76301,-14.39332,1002.213
4.901124954,5.341262,62.13318,-3.024664,-1.021441,0.08696887,-0.01440152,58.55345,22.03937,-10.48169,1002.213
4.906180382,3.808823,60.80005,-3.024664,-1.029119,0.06849115,-0.02485236,58.55345,22.03937,-10.48169,1002.213
4.911235332,2.276384,59.70931,-2.779724,-1.029751,0.03593816,-0.02902497,58.55345,22.03937,-10.48169,1002.213
4.916290760,1.11173,58.73976,-2.596019,-1.038742,0.0004892492,-0.04516101,58.55345,22.03937,-10.48169,1002.213
4.921346188,0.4987546,58.19439,-2.534784,-1.02831,-0.02584212,-0.06124892,58.55345,22.03937,-10.48169,1002.213
4.926401615,1.050433,57.64901,-2.473549,-1.022755,-0.05560514,-0.08168674,58.55345,22.03937,-10.48169,1002.213
4.931456566,2.521574,57.40663,-2.534784,-1.022148,-0.07724084,-0.09851995,58.55345,22.03937,-10.48169,1002.213
4.936511993,4.850882,57.58842,-2.779724,-1.019079,-0.09839421,-0.1120129,58.55345,22.03937,-10.48169,1002.213
4.941567421,7.302784,57.58842,-2.779724,-1.03271,-0.11204,-0.127551,58.55345,22.03937,-10.48169,1002.213
4.946622848,10.30637,57.70961,-2.718489,-1.031135,-0.1260245,-0.1341451,58.55345,22.03937,-10.48169,1002.213
4.951677799,13.61643,58.13379,-2.289844,-1.028636,-0.1246613,-0.124559,58.1855,23.14445,-7.786214,1002.213
4.956733704,17.47818,59.10334,-2.106138,-1.033406,-0.1363818,-0.1276843,58.1855,23.14445,-7.786214,1002.213
4.961788654,21.9529,60.43647,-1.738728,-1.029488,-0.1315729,-0.1189815,58.1855,23.14445,-7.786214,1002.21
4.966843605,27.34709,61.709,-1.677493,-1.037181,-0.1366947,-0.1113789,58.1855,23.14445,-7.786214,1002.21
4.971899033,32.067,63.58751,-1.616258,-1.029681,-0.1506973,-0.1094119,58.1855,23.14445,-7.786214,1002.21
4.976954460,37.39989,64.67825,-1.616258,-1.035883,-0.1482224,-0.08726772,58.1855,23.14445,-7.786214,1002.21
4.982009888,41.56812,66.61735,-1.738728,-1.042733,-0.1435569,-0.08229686,58.1855,23.14445,-7.786214,1002.21
4.987064838,45.79765,67.76869,-1.922433,-1.054898,-0.1409933,-0.07349915,58.1855,23.14445,-7.786214,1002.21
4.992120266,49.10772,69.16242,-1.983668,-1.065216,-0.1272501,-0.06156226,58.1855,23.14445,-7.786214,1002.21
4.997175694,51.92741,70.31376,-1.799963,-1.067494,-0.09764136,-0.05935197,58.1855,23.14445,-7.786214,1002.21
5.002231121,53.52115,70.49555,-1.616258,-1.071581,-0.07642847,-0.05111418,58.23101,22.78037,-4.321343,1002.211
5.007286072,54.50191,70.79854,-1.310083,-1.088511,-0.04421681,-0.04582672,58.23101,22.78037,-4.321343,1002.211
5.012341499,54.19542,70.49555,-1.616258,-1.091678,-0.01669168,-0.03552218,58.23101,22.78037,-4.321343,1002.211
5.014869690,53.76634,70.25317,-1.738728,-1.091291,-0.0117345,-0.04114489,58.23101,22.78037,-4.321343,1002.211
5.019924641,52.2339,69.28362,-1.861198,-1.086579,0.005807842,-0.03691357,58.23101,22.78037,-4.321343,1002.211
5.024980068,50.39497,68.07168,-2.473549,-1.072487,0.008087383,-0.04177639,58.23101,22.78037,-4.321343,1002.211
5.030035496,47.88177,65.52661,-3.269604,-1.074643,0.03223344,-0.03204603,58.23101,22.78037,-4.321343,1002.211
5.035090446,45.98155,62.67855,-4.310599,-1.100338,0.05996102,-0.03061971,58.23101,22.78037,-4.321343,1002.211
5.040145874,43.83613,58.55797,-5.78024,-1.136917,0.07161319,-0.008912646,58.23101,22.78037,-4.321343,1002.211
5.045201302,41.07774,54.1344,-7.004941,-1.155454,0.08267844,0.00925768,58.23101,22.78037,-4.321343,1002.211
5.050256729,37.39989,49.95321,-7.494821,-1.171173,0.09923969,0.02131725,57.87971,23.14525,-1.688775,1002.211
5.055311680,33.90593,45.71143,-7.923466,-1.172603,0.1001003,0.02709768,57.87971,23.14525,-1.688775,1002.211
5.060367107,31.27013,41.04547,-8.168406,-1.184465,0.1058736,0.01682397,57.87971,23.14525,-1.688775,1002.211
5.065422535,30.04418,36.01593,-7.984701,-1.182536,0.097382,0.001269802,57.87971,23.14525,-1.688775,1002.211
5.070477963,30.16678,31.65295,-7.556056,-1.191615,0.07733325,-0.00346267,57.87971,23.14525,-1.688775,1002.211
5.075532913,31.39273,26.98699,-6.576295,-1.196938,0.06334155,-0.01813056,57.87971,23.14525,-1.688775,1002.211
5.080588341,32.49608,22.38163,-5.474065,-1.196954,0.03103675,-0.005546313,57.87971,23.14525,-1.688775,1002.211
5.085643768,32.80257,17.59448,-4.004425,-1.197927,-0.00227302,0.00797895,57.87971,23.14525,-1.688775,1002.211
5.090698719,32.1283,13.11031,-2.473549,-1.193465,-0.03513068,0.03056064,57.87971,23.14525,-1.688775,1002.211
5.095754147,31.69921,8.747335,-0.5140276,-1.187067,-0.07744554,0.03708481,57.87971,23.14525,-1.688775,1002.211
5.100809574,31.57662,4.990329,1.690434,-1.179858,-0.1070552,0.04105169,57.16165,23.1296,0.4982839,1002.211
5.105865002,32.31219,0.8697416,3.649954,-1.172587,-0.1363057,0.05364468,57.16165,23.1296,0.4982839,1002.211
5.110919952,34.08982,-4.099202,4.69095,-1.175987,-0.1587366,0.08518324,57.16165,23.1296,0.4982839,1002.211
5.115975380,34.4576,-10.28008,4.874655,-1.209802,-0.1833061,0.1571703,57.16165,23.1296,0.4982839,1002.211
5.121030808,33.96722,-16.76395,4.201069,-1.247827,-0.1859574,0.2225728,57.16165,23.1296,0.4982839,1002.211
5.126086235,32.1283,-23.4902,2.670194,-1.294534,-0.182775,0.3102283,57.16165,23.1296,0.4982839,1002.21
5.131141186,30.04418,-30.70123,0.3432629,-1.339345,-0.1437835,0.3810621,57.16165,23.1296,0.4982839,1002.21
5.136196613,29.98289,-38.03345,-1.677493,-1.373466,-0.07074344,0.4335101,57.16165,23.1296,0.4982839,1002.21
5.141252041,33.10906,-46.33522,-3.637014,-1.410533,0.01890051,0.4457138,57.16165,23.1296,0.4982839,1002.21
5.146307468,38.62584,-55.06118,-4.739245,-1.420136,0.09451998,0.4534714,57.51953,23.50869,0.1098084,1002.21
5.151362419,45.06208,-62.57519,-6.208885,-1.435609,0.152918,0.4340366,57.51953,23.50869,0.1098084,1002.21
5.156417847,52.11131,-68.75607,-7.494821,-1.423125,0.164009,0.4236679,57.51953,23.50869,0.1098084,1002.21
5.161473274,57.75068,-74.27039,-8.352111,-1.400799,0.1556106,0.3945183,57.51953,23.50869,0.1098084,1002.21
5.166528225,61.98021,-81.05724,-10.18916,-1.405334,0.1067957,0.3665103,57.51953,23.50869,0.1098084,1002.211
5.171583653,64.06433,-88.38946,-12.02621,-1.363426,0.05869593,0.3481354,57.51953,23.50869,0.1098084,1002.211
5.176639080,64.00303,-96.93362,-13.74079,-1.335149,0.0126603,0.3376018,57.51953,23.50869,0.1098084,1002.211
5.181694508,63.63525,-105.0536,-15.3329,-1.304459,-0.0280438,0.3314897,57.51953,23.50869,0.1098084,1002.211
5.186749458,63.08357,-113.5372,-16.61884,-1.301854,-0.07067446,0.2892088,57.51953,23.50869,0.1098084,1002.211
5.191804886,61.91891,-123.9598,-17.90478,-1.302439,-0.1161677,0.2717806,57.51953,23.50869,0.1098084,1002.211
5.196860313,59.7122,-134.5643,-18.45589,-1.29116,-0.1636283,0.2704677,57.10271,23.86295,-3.416281,1002.211
5.201915741,56.21824,-144.4416,-18.39466,-1.297819,-0.2287848,0.258821,57.10271,23.86295,-3.416281,1002.211
5.206970692,51.86611,-153.2281,-17.23119,-1.319873,-0.2789702,0.2357313,57.10271,23.86295,-3.416281,1002.215
5.212026119,46.59452,-160.4391,-15.45537,-1.347199,-0.3047179,0.19895,57.10271,23.86295,-3.416281,1002.215
5.217081547,43.40705,-165.3475,-13.25091,-1.370956,-0.2960076,0.1074753,57.10271,23.86295,-3.416281,1002.215
5.222136498,44.14262,-167.832,-10.37287,-1.410851,-0.2304864,-0.02836341,57.10271,23.86295,-3.416281,1002.215
5.227192879,47.75918,-168.9227,-6.270121,-1.454447,-0.1602139,-0.1937291,57.10271,23.86295,-3.416281,1002.215
5.232247829,53.58245,-169.3469,-1.922433,-1.506643,-0.0918747,-0.3379975,57.10271,23.86295,-3.416281,1002.215
5.237303257,57.75068,-168.0743,3.160074,-1.570786,-0.01995089,-0.4437616,57.10271,23.86295,-3.416281,1002.215
5.239830494,59.09923,-166.7412,5.854415,-1.578304,-0.039715,-0.4982919,57.10271,23.86295,-3.416281,1002.215
5.244885922,63.63525,-162.1964,11.91668,-1.619467,-0.02211379,-0.5549059,56.67045,23.47182,-10.02045,1002.215
5.249941349,65.78066,-156.8639,16.26437,-1.639307,-0.02426622,-0.5983396,56.67045,23.47182,-10.02045,1002.21
5.254996300,64.43211,-151.895,19.26489,-1.642342,-0.02412298,-0.6117123,56.67045,23.47182,-10.02045,1002.21
5.260051727,60.57037,-148.3198,20.36712,-1.646968,-0.03706335,-0.5981137,56.67045,23.47182,-10.02045,1002.21
5.265107155,52.90817,-146.8654,19.75477,-1.632665,-0.04374263,-0.5893223,56.67045,23.47182,-10.02045,1002.21
5.270162582,42.30369,-146.8654,18.5913,-1.606606,-0.0488578,-0.5729423,56.67045,23.47182,-10.02045,1002.21
5.275217533,31.14754,-147.0472,16.1419,-1.573005,-0.07185917,-0.555173,56.67045,23.47182,-10.02045,1002.21
5.280272961,19.6236,-146.8048,12.95768,-1.53471,-0.109623,-0.5205883,56.67045,23.47182,-10.02045,1002.21
5.285328388,8.40614,-146.2595,10.32457,-1.522357,-0.1420114,-0.4870579,56.67045,23.47182,-10.02045,1002.21
5.290383339,-1.953148,-146.2595,8.120111,-1.502024,-0.1779059,-0.4369358,56.67045,23.47182,-10.02045,1002.21
5.295438767,-11.33168,-147.9562,7.262821,-1.472228,-0.1773627,-0.3711357,56.93504,24.20724,-18.36448,1002.21
5.300494194,-19.91333,-150.3801,7.446526,-1.428305,-0.1712698,-0.3010193,56.93504,24.20724,-18.36448,1002.21
5.305549622,-26.34958,-152.6221,9.161107,-1.383746,-0.1454864,-0.2452498,56.93504,24.20724,-18.36448,1002.21
5.310604572,-30.15003,-153.1069,11.73298,-1.332567,-0.108707,-0.2007535,56.93504,24.20724,-18.36448,1002.21
5.315660000,-31.55987,-152.8645,14.48855,-1.273033,-0.05049857,-0.1797293,56.93504,24.20724,-18.36448,1002.21
5.320715427,-29.72095,-150.9254,17.3666,-1.214728,-0.01322259,-0.1597042,56.93504,24.20724,-18.36448,1002.21
5.325770855,-27.33034,-148.5621,20.24465,-1.168377,0.03189912,-0.1585169,56.93504,24.20724,-18.36448,1002.21
5.330825806,-24.51065,-145.4717,22.75528,-1.128546,0.04679749,-0.1618661,56.93504,24.20724,-18.36448,1002.21
5.335881233,-22.30394,-142.8055,24.89851,-1.098685,0.07475808,-0.1724491,56.93504,24.20724,-18.36448,1002.21
5.340937138,-21.07799,-140.018,26.00074,-1.049465,0.07866468,-0.1776026,56.93504,24.20724,-18.36448,1002.21
5.345992565,-21.56837,-137.2911,26.9805,-1.01429,0.07639402,-0.1775141,56.14878,23.0662,-25.02862,1002.21
5.351047993,-23.65248,-134.2007,27.34791,-0.9854959,0.07359658,-0.1826449,56.14878,23.0662,-25.02862,1002.21
5.356102944,-27.45293,-131.292,27.40915,-0.9560367,0.05429412,-0.1896377,56.14878,23.0662,-25.02862,1002.21
5.361159325,-31.25338,-127.3532,27.65409,-0.9473777,0.01997554,-0.1944218,56.14878,23.0662,-25.02862,1002.21
5.366213799,-35.17643,-123.4145,27.53161,-0.9575437,0.006301579,-0.2037695,56.14878,23.0662,-25.02862,1002.21
5.371269226,-40.63191,-120.324,27.22544,-0.945927,-0.0004432823,-0.2265522,56.14878,23.0662,-25.02862,1002.206
5.376324177,-47.31335,-118.2031,27.83779,-0.9293659,0.001352991,-0.2285781,56.14878,23.0662,-25.02862,1002.206
5.381379604,-54.91425,-116.0822,28.38891,-0.8991011,-5.729962E-07,-0.2308136,56.14878,23.0662,-25.02862,1002.206
5.386435032,-62.69904,-114.3249,29.2462,-0.8885617,0.007706276,-0.24508,56.14878,23.0662,-25.02862,1002.206
5.391489983,-70.05474,-112.9312,30.04225,-0.8724921,0.005215357,-0.2539128,53.48022,23.35772,-31.16737,1002.206
5.396545410,-76.49099,-111.1133,31.14448,-0.8609043,0.01280617,-0.2590956,53.48022,23.35772,-31.16737,1002.206
5.401600838,-82.43685,-109.2348,31.57313,-0.8508329,0.01284976,-0.2821699,53.48022,23.35772,-31.16737,1002.206
5.406656265,-86.60509,-106.9927,32.00177,-0.8279693,0.009605253,-0.2973099,53.48022,23.35772,-31.16737,1002.206
5.411711216,-89.79256,-104.1446,32.12424,-0.8109119,0.008062797,-0.3032554,53.48022,23.35772,-31.16737,1002.208
5.416766644,-91.87668,-101.4784,31.63436,-0.7909404,0.004220913,-0.3145531,53.48022,23.35772,-31.16737,1002.208
5.421822071,-92.85744,-98.44854,30.96078,-0.7720087,0.008571994,-0.3218028,53.48022,23.35772,-31.16737,1002.208
5.426877499,-93.28652,-94.93392,30.16472,-0.7588783,0.006999208,-0.3305845,53.48022,23.35772,-31.16737,1002.208
5.431932449,-93.34782,-91.3587,29.30743,-0.725637,-0.007719345,-0.3465929,53.48022,23.35772,-31.16737,1002.208
5.436987877,-92.91874,-88.08647,28.08273,-0.7081434,-0.005347927,-0.3534005,53.48022,23.35772,-31.16737,1002.208
5.442043305,-93.7769,-84.93543,26.73556,-0.6833441,0.003376192,-0.3529345,51.22757,22.92337,-34.67754,1002.208
5.447098255,-94.45118,-81.36022,25.69456,-0.6611465,-0.01141119,-0.3453813,51.22757,22.92337,-34.67754,1002.208
5.452157974,-93.28652,-77.48202,24.40863,-0.6405717,-0.02307474,-0.3535323,51.22757,22.92337,-34.67754,1002.207
5.457209110,-92.36706,-74.33098,23.4901,-0.614456,-0.04162356,-0.3499418,51.22757,22.92337,-34.67754,1002.207
5.462264538,-90.46684,-69.78622,22.38787,-0.6064996,-0.03841993,-0.3264767,51.22757,22.92337,-34.67754,1002.207
5.467319489,-88.93439,-66.08981,20.61206,-0.6472332,-0.004476245,-0.303685,51.22757,22.92337,-34.67754,1002.207
5.469847679,-88.62791,-64.45369,19.26489,-0.6587462,-0.01601423,-0.2947731,51.22757,22.92337,-34.67754,1002.207
5.474903107,-86.11471,-60.4543,19.32612,-0.5739681,-0.07979604,-0.2852266,51.22757,22.92337,-34.67754,1002.207
5.479958058,-83.04983,-54.45521,19.01995,-0.5721915,-0.08986979,-0.2601255,51.22757,22.92337,-34.67754,1002.207
