Time (s),Gyroscope X (deg/s),Gyroscope Y (deg/s),Gyroscope Z (deg/s),Accelerometer X (g),Accelerometer Y (g),Accelerometer Z (g),Magnetometer X (uT),Magnetometer Y (uT),Magnetometer Z (uT),Barometer (hPa)
0.007424831,4.023106,-14.46423,0.217991,-0.1068673,-0.9184836,-0.3771774,-7.615332,40.01697,23.21233,1002.02
0.012434959,6.17126,-14.10105,0.7682135,-0.1078563,-0.9119833,-0.384147,-7.615332,40.01697,23.21233,1002.02
0.017444611,8.012536,-13.91946,0.584806,-0.1034428,-0.9117929,-0.3893837,-7.615332,40.01697,23.21233,1002.02
0.022454262,9.669684,-14.10105,0.1568552,-0.1038798,-0.9232962,-0.3782935,-7.615332,40.01697,23.21233,1002.02
0.027463913,10.95858,-13.85894,0.2791268,-0.09950581,-0.9272386,-0.3740778,-7.615332,40.01697,23.21233,1002.02
0.032474041,12.37022,-13.31417,0.7682135,-0.1017872,-0.9380406,-0.3730686,-7.615332,40.01697,23.21233,1002.02
0.037483215,13.59774,-11.80093,1.746387,-0.1032956,-0.927088,-0.3827567,-7.615332,40.01697,23.21233,1002.02
0.042493343,13.72049,-11.61935,1.929794,-0.1018683,-0.926625,-0.3808036,-7.615332,40.01697,23.21233,1002.02
0.047502995,13.10673,-11.13511,1.685251,-0.1004334,-0.9246294,-0.3816752,-7.615332,40.01697,23.21233,1002.02
0.052513123,11.63371,-10.95352,1.073893,-0.1003794,-0.9290428,-0.3808816,-5.314802,39.68459,23.17986,1002.02
0.057522297,9.240053,-10.46929,0.7070777,-0.1056343,-0.9370179,-0.3773904,-5.314802,39.68459,23.17986,1002.018
0.062532425,7.460154,-10.40876,0.951621,-0.1109342,-0.9425769,-0.3728468,-5.314802,39.68459,23.17986,1002.018
0.067544460,5.189247,-9.863993,1.135028,-0.1158675,-0.9403353,-0.3675224,-5.314802,39.68459,23.17986,1002.018
0.072551727,3.593474,-9.319228,1.440708,-0.1149368,-0.9404132,-0.3636726,-5.314802,39.68459,23.17986,1002.018
0.077561378,2.181829,-9.07711,1.746387,-0.114044,-0.9385631,-0.3587888,-5.314802,39.68459,23.17986,1002.018
0.082571030,1.813574,-8.471816,1.929794,-0.1203874,-0.9352288,-0.3592021,-5.314802,39.68459,23.17986,1002.018
0.087576866,1.813574,-7.98758,2.663424,-0.1175299,-0.9317716,-0.3590437,-5.314802,39.68459,23.17986,1002.018
0.092586517,2.734212,-7.866521,2.969103,-0.1166071,-0.9248014,-0.3640554,-5.314802,39.68459,23.17986,1002.018
0.097596169,3.532098,-7.684933,3.213647,-0.1155805,-0.924649,-0.369806,-5.314802,39.68459,23.17986,1002.016
0.102605820,4.207233,-7.98758,3.091375,-0.1156135,-0.9227093,-0.369252,-6.458384,40.05166,22.31605,1002.016
0.107615948,5.311998,-8.169168,3.152511,-0.1141479,-0.9221542,-0.3711391,-6.458384,40.05166,22.31605,1002.016
0.112625122,6.048509,-7.866521,3.213647,-0.1184967,-0.9226942,-0.371681,-6.458384,40.05166,22.31605,1002.016
0.117635250,6.969147,-7.927051,3.519326,-0.1135835,-0.9290226,-0.369473,-6.458384,40.05166,22.31605,1002.016
0.122644901,7.276026,-7.745462,3.580462,-0.1155506,-0.9301302,-0.3652092,-6.458384,40.05166,22.31605,1002.016
0.127654552,7.644281,-7.321756,3.947277,-0.1173559,-0.9358971,-0.3702506,-6.458384,40.05166,22.31605,1002.016
0.132664204,7.767033,-7.200698,4.069548,-0.1179151,-0.937598,-0.3607105,-6.458384,40.05166,22.31605,1002.016
0.137674332,7.767033,-6.413815,4.436363,-0.1183716,-0.9405665,-0.3593862,-6.458384,40.05166,22.31605,1002.02
0.142683506,7.889785,-5.747992,4.803178,-0.119329,-0.9420671,-0.3584913,-6.458384,40.05166,22.31605,1002.02
0.147693634,8.135288,-5.203227,5.414536,-0.1120706,-0.9409738,-0.3588619,-6.458384,40.05166,22.31605,1002.02
0.152703285,7.95116,-4.537403,5.536808,-0.1178583,-0.9404903,-0.3622615,-6.849911,40.42316,22.31366,1002.02
0.157712936,7.828409,-3.871579,5.597944,-0.1174071,-0.9395536,-0.3602996,-6.849911,40.42316,22.31366,1002.02
0.162722588,8.012536,-3.689991,5.475672,-0.1107133,-0.9326021,-0.3609332,-6.849911,40.42316,22.31366,1002.02
0.167732716,7.95116,-3.024167,5.108858,-0.1106875,-0.9350642,-0.3600656,-6.849911,40.42316,22.31366,1002.02
0.172741890,7.582905,-2.479402,5.108858,-0.1160811,-0.931762,-0.3585492,-6.849911,40.42316,22.31366,1002.02
0.177752018,7.398777,-1.934637,4.864314,-0.110664,-0.937027,-0.3596596,-6.849911,40.42316,22.31366,1002.02
0.182761669,6.969147,-1.813578,4.803178,-0.1154761,-0.9390376,-0.3602618,-6.849911,40.42316,22.31366,1002.02
0.187771797,6.662267,-1.026696,4.742043,-0.1116624,-0.9391307,-0.353983,-6.849911,40.42316,22.31366,1002.02
0.192780972,6.232636,-0.6635193,4.803178,-0.1136456,-0.9377531,-0.3515467,-6.849911,40.42316,22.31366,1002.02
0.197791100,5.74163,-0.4214016,4.742043,-0.1160013,-0.9386375,-0.356888,-6.849911,40.42316,22.31366,1002.02
0.202800751,5.250623,0.1233633,4.803178,-0.1112084,-0.936673,-0.3543657,-5.705026,40.44612,22.33193,1002.02
0.207810402,5.189247,0.5470693,4.864314,-0.1145831,-0.9361771,-0.3567811,-5.705026,40.44612,22.33193,1002.02
0.212820053,5.373374,1.031305,4.803178,-0.1160275,-0.9381956,-0.3549495,-5.705026,40.44612,22.33193,1002.02
0.217830181,5.74163,0.9707752,4.864314,-0.1203827,-0.9352173,-0.3596821,-5.705026,40.44612,22.33193,1002.018
0.222839356,5.987133,1.091834,4.92545,-0.1160389,-0.935699,-0.3572571,-5.705026,40.44612,22.33193,1002.018
0.227849484,6.355388,1.333952,4.986586,-0.1231885,-0.9425885,-0.3595085,-5.705026,40.44612,22.33193,1002.018
0.232859135,6.232636,1.212893,5.047722,-0.1189397,-0.9392598,-0.3530954,-5.705026,40.44612,22.33193,1002.018
0.237868786,6.539515,1.757658,5.047722,-0.1194434,-0.939313,-0.3511801,-5.705026,40.44612,22.33193,1002.018
0.242878437,6.600892,1.818187,5.169993,-0.1213325,-0.9447764,-0.3485227,-5.705026,40.44612,22.33193,1002.018
0.247888565,6.723643,2.181364,5.414536,-0.1174879,-0.9463099,-0.3432594,-5.705026,40.44612,22.33193,1002.018
0.252897739,6.907771,2.60507,5.781352,-0.1160111,-0.9492616,-0.3414358,-4.999343,40.46602,21.88582,1002.018
0.257907867,6.539515,3.028776,5.964759,-0.1190412,-0.9425322,-0.3388058,-4.999343,40.46602,21.88582,1002.017
0.262917519,6.47814,3.391953,5.964759,-0.1151398,-0.9469581,-0.3350934,-4.999343,40.46602,21.88582,1002.017
0.267927170,6.416764,3.755129,6.087031,-0.1141637,-0.9378408,-0.3481915,-4.999343,40.46602,21.88582,1002.017
0.272936821,6.294012,3.815659,6.148167,-0.1155509,-0.9407313,-0.3507169,-4.999343,40.46602,21.88582,1002.017
0.277948380,5.864381,3.452482,5.781352,-0.11315,-0.9412528,-0.3478312,-4.999343,40.46602,21.88582,1002.017
0.282956123,4.69824,3.089305,5.353401,-0.1147116,-0.9324473,-0.3494329,-4.999343,40.46602,21.88582,1002.017
0.287961960,4.084481,3.028776,5.108858,-0.116047,-0.939252,-0.3516263,-4.999343,40.46602,21.88582,1002.017
0.292972088,4.023106,3.391953,5.597944,-0.1155986,-0.9398363,-0.3473198,-4.999343,40.46602,21.88582,1002.017
0.297981262,3.900353,3.089305,5.720216,-0.1155748,-0.9407889,-0.3483169,-4.999343,40.46602,21.88582,1002.015
0.302991390,3.96173,3.331423,5.903623,-0.114117,-0.9427766,-0.3459763,-5.311335,40.4655,21.42347,1002.015
0.308001041,4.145857,3.270894,5.964759,-0.1131096,-0.9426702,-0.3498067,-5.311335,40.4655,21.42347,1002.015
0.313011170,4.575488,3.270894,6.148167,-0.115565,-0.9397556,-0.3506799,-5.311335,40.4655,21.42347,1002.015
0.318020344,4.636864,3.391953,6.209302,-0.1145275,-0.9441203,-0.3513168,-5.311335,40.4655,21.42347,1002.015
0.323034287,4.391361,3.391953,6.087031,-0.1141375,-0.9382825,-0.35013,-5.311335,40.4655,21.42347,1002.015
0.328040123,4.207233,3.6946,5.964759,-0.1180338,-0.9424259,-0.3426362,-5.311335,40.4655,21.42347,1002.015
0.333049774,3.593474,3.815659,5.720216,-0.1174654,-0.9427224,-0.3503302,-5.311335,40.4655,21.42347,1002.015
0.338062763,3.532098,3.755129,5.65908,-0.1217604,-0.948686,-0.3486755,-5.311335,40.4655,21.42347,1002.015
0.343069553,2.856964,3.997247,5.720216,-0.1222828,-0.9467649,-0.3476463,-5.311335,40.4655,21.42347,1002.015
0.348078728,2.91834,4.239365,5.781352,-0.1222901,-0.9472873,-0.3462248,-5.311335,40.4655,21.42347,1002.015
0.353088856,3.041091,3.815659,5.903623,-0.1262829,-0.9440904,-0.3394137,-5.327266,40.83879,21.88445,1002.015
0.358098507,3.286595,4.118306,5.720216,-0.1267291,-0.9440053,-0.3432586,-5.327266,40.83879,21.88445,1002.015
0.363108158,3.65485,4.057776,5.842487,-0.1253992,-0.9402427,-0.336376,-5.327266,40.83879,21.88445,1002.015
0.368117809,3.593474,4.057776,6.025895,-0.1228577,-0.9439602,-0.34274,-5.327266,40.83879,21.88445,1002.015
0.373127937,4.207233,4.239365,6.025895,-0.1252609,-0.9429393,-0.3460873,-5.327266,40.83879,21.88445,1002.015
0.378137112,4.452736,4.239365,6.025895,-0.1214706,-0.9410696,-0.3402145,-5.327266,40.83879,21.88445,1002.019
0.383147240,4.759616,4.360423,6.148167,-0.1223871,-0.9419673,-0.3441013,-5.327266,40.83879,21.88445,1002.019
0.388156891,4.759616,4.360423,5.964759,-0.1291754,-0.9430881,-0.3422858,-5.327266,40.83879,21.88445,1002.019
0.393166542,4.452736,4.663071,5.964759,-0.126651,-0.948361,-0.3448651,-5.327266,40.83879,21.88445,1002.019
0.398176193,4.268609,4.7236,6.087031,-0.1295208,-0.9523521,-0.3431219,-5.327266,40.83879,21.88445,1002.019
0.403186321,3.900353,4.965718,6.209302,-0.1334638,-0.9515599,-0.3378434,-5.007078,41.23605,20.97866,1002.019
0.408195496,3.225219,5.026247,6.148167,-0.1334085,-0.9509224,-0.3440651,-5.007078,41.23605,20.97866,1002.019
0.413205624,2.91834,5.692071,6.270438,-0.1306135,-0.948625,-0.3362634,-5.007078,41.23605,20.97866,1002.019
0.418215275,2.672836,6.055247,6.331574,-0.1325468,-0.9486418,-0.3367627,-5.007078,41.23605,20.97866,1002.017
0.423224449,2.365957,6.7816,6.148167,-0.1291264,-0.9485232,-0.3396091,-5.007078,41.23605,20.97866,1002.017
0.428236008,2.488709,7.084248,6.148167,-0.1349974,-0.9457158,-0.338116,-5.007078,41.23605,20.97866,1002.017
0.433244705,2.856964,7.386895,5.964759,-0.1340895,-0.9408004,-0.3388814,-5.007078,41.23605,20.97866,1002.017
0.438254356,2.91834,7.810601,5.781352,-0.1385334,-0.9385402,-0.3340323,-5.007078,41.23605,20.97866,1002.017
0.443264008,3.102467,8.173778,5.781352,-0.1322446,-0.9394814,-0.3316064,-5.007078,41.23605,20.97866,1002.017
0.448273659,3.409347,8.536954,5.720216,-0.1379997,-0.942958,-0.3327538,-5.007078,41.23605,20.97866,1002.017
0.453283787,3.593474,9.263308,5.842487,-0.1413888,-0.9424967,-0.3337291,-4.619418,41.24957,20.52748,1002.017
0.458296776,3.777602,10.11072,5.720216,-0.1375245,-0.9419639,-0.333192,-4.619418,41.24957,20.52748,1002.021
0.463303089,3.777602,10.23178,5.903623,-0.1412881,-0.9422549,-0.3438095,-4.619418,41.24957,20.52748,1002.021
0.468312740,4.145857,10.59495,5.720216,-0.1385112,-0.935963,-0.3397,-4.619418,41.24957,20.52748,1002.021
0.473322392,3.777602,10.95813,5.65908,-0.1413381,-0.9408605,-0.3408739,-4.619418,41.24957,20.52748,1002.021
0.478332043,3.838978,11.38184,5.842487,-0.1393813,-0.9428065,-0.3399686,-4.619418,41.24957,20.52748,1002.021
0.483342171,3.65485,11.5029,5.720216,-0.1380298,-0.9384871,-0.3359475,-4.619418,41.24957,20.52748,1002.021
0.488347530,3.470722,11.98713,5.781352,-0.1380192,-0.9344233,-0.3425198,-4.619418,41.24957,20.52748,1002.021
0.493357182,4.084481,12.41084,5.842487,-0.146136,-0.9438468,-0.3415131,-4.619418,41.24957,20.52748,1002.021
0.498367310,4.329985,12.77401,5.781352,-0.1383759,-0.9411907,-0.3456636,-4.621583,40.85869,21.43833,1002.021
0.503376484,4.514112,12.59243,5.842487,-0.142247,-0.9402256,-0.3475853,-4.621583,40.85869,21.43833,1002.021
0.508386612,4.575488,12.89507,5.720216,-0.1402572,-0.9441113,-0.3472339,-4.621583,40.85869,21.43833,1002.021
0.513396263,4.575488,12.9556,5.292265,-0.140287,-0.9386302,-0.3518307,-4.621583,40.85869,21.43833,1002.021
0.518405914,4.207233,13.37931,5.231129,-0.1387988,-0.9440786,-0.3476995,-4.621583,40.85869,21.43833,1002.021
0.523415565,3.838978,13.37931,5.231129,-0.1408452,-0.9458814,-0.3348137,-4.621583,40.85869,21.43833,1002.021
0.528425693,3.716226,13.80301,5.108858,-0.1417809,-0.9468251,-0.3367805,-4.621583,40.85869,21.43833,1002.021
0.533434868,3.65485,14.16619,5.047722,-0.1427981,-0.9479646,-0.3305869,-4.621583,40.85869,21.43833,1002.021
0.538444996,3.470722,14.16619,5.169993,-0.1441873,-0.9493456,-0.334977,-4.621583,40.85869,21.43833,1002.02
0.543454647,3.65485,14.52937,5.169993,-0.1470742,-0.9548923,-0.3294491,-4.621583,40.85869,21.43833,1002.02
0.548464298,3.777602,14.89254,5.353401,-0.1500376,-0.950022,-0.3307332,-3.866061,41.64402,20.54335,1002.02
0.553473949,3.96173,15.43731,5.169993,-0.1481137,-0.9490181,-0.3306769,-3.866061,41.64402,20.54335,1002.02
0.558484077,4.207233,15.31625,5.292265,-0.1442802,-0.9470448,-0.3291243,-3.866061,41.64402,20.54335,1002.02
0.563493252,4.452736,15.67943,5.414536,-0.1456787,-0.9474387,-0.3339575,-3.866061,41.64402,20.54335,1002.02
0.568503380,4.514112,15.67943,5.475672,-0.1418377,-0.9439328,-0.3352295,-3.866061,41.64402,20.54335,1002.02
0.573513031,4.759616,15.86102,5.292265,-0.1407712,-0.9472182,-0.3401495,-3.866061,41.64402,20.54335,1002.02
0.578526974,5.066495,15.80049,5.292265,-0.1345583,-0.945313,-0.3342525,-3.866061,41.64402,20.54335,1002.02
0.583532333,5.557502,15.98207,5.169993,-0.1354625,-0.9446666,-0.3414439,-3.866061,41.64402,20.54335,1002.02
0.588542461,5.680254,15.86102,5.231129,-0.133532,-0.9461709,-0.3386,-3.866061,41.64402,20.54335,1002.02
0.593552112,6.048509,15.98207,5.169993,-0.1343649,-0.9483822,-0.3487825,-3.866061,41.64402,20.54335,1002.02
0.598561764,5.74163,15.98207,5.108858,-0.1334701,-0.9480415,-0.3420341,-4.619418,41.24957,20.52748,1002.02
0.603571415,5.925757,16.0426,5.169993,-0.1328434,-0.9547603,-0.3466083,-4.619418,41.24957,20.52748,1002.02
0.608581543,5.987133,16.10313,5.231129,-0.1368645,-0.9496121,-0.3397233,-4.619418,41.24957,20.52748,1002.02
0.613590717,6.17126,16.76896,5.292265,-0.1373841,-0.9461699,-0.3410387,-4.619418,41.24957,20.52748,1002.02
0.618600845,5.925757,16.6479,5.231129,-0.1295664,-0.9529667,-0.3378602,-4.619418,41.24957,20.52748,1002.022
0.623610496,6.294012,16.95055,5.292265,-0.1309359,-0.9522812,-0.3469765,-4.619418,41.24957,20.52748,1002.022
0.628620148,6.355388,17.01107,5.108858,-0.1329724,-0.9530508,-0.336454,-4.619418,41.24957,20.52748,1002.022
0.633629799,6.539515,17.0716,5.047722,-0.1305726,-0.948022,-0.3410451,-4.619418,41.24957,20.52748,1002.022
0.638639927,6.355388,17.31372,4.92545,-0.1310172,-0.9514669,-0.3402193,-4.619418,41.24957,20.52748,1002.022
0.643649101,6.846395,17.61637,5.047722,-0.1330242,-0.9491367,-0.336786,-4.619418,41.24957,20.52748,1002.022
0.648659229,7.337402,17.97955,5.169993,-0.1318794,-0.9557677,-0.3447155,-4.249907,41.95819,20.08307,1002.022
0.653668880,7.705657,18.10061,5.536808,-0.1290756,-0.946887,-0.3467538,-4.249907,41.95819,20.08307,1002.022
0.658678055,8.380792,18.7059,5.720216,-0.1277241,-0.9425675,-0.3427328,-4.249907,41.95819,20.08307,1002.02
0.663688183,8.503543,19.1296,5.65908,-0.1266738,-0.9433678,-0.3494804,-4.249907,41.95819,20.08307,1002.02
0.668699264,8.749046,19.00855,5.169993,-0.1292883,-0.9342729,-0.343393,-4.249907,41.95819,20.08307,1002.02
0.673707485,8.073913,18.82696,4.558635,-0.1335037,-0.9385312,-0.3517631,-4.249907,41.95819,20.08307,1002.02
0.678717613,7.21465,18.22166,3.886141,-0.1333775,-0.9513526,-0.3464837,-4.249907,41.95819,20.08307,1002.02
0.683727264,6.17126,17.79796,3.213647,-0.1320413,-0.9511084,-0.3354103,-4.249907,41.95819,20.08307,1002.02
0.688732624,4.882368,17.6769,3.397054,-0.1343798,-0.9600281,-0.3314471,-4.249907,41.95819,20.08307,1002.02
0.693742752,4.084481,17.79796,3.702733,-0.1315186,-0.9616103,-0.3247534,-4.249907,41.95819,20.08307,1002.02
0.698752403,3.225219,17.79796,3.825005,-0.1325048,-0.9631801,-0.3209784,-5.322937,41.62054,20.06273,1002.02
0.703761578,2.550085,17.85849,4.069548,-0.1315701,-0.956686,-0.3264886,-5.322937,41.62054,20.06273,1002.02
0.708771706,2.427333,17.97955,4.803178,-0.1287002,-0.9516848,-0.3296348,-5.322937,41.62054,20.06273,1002.02
0.713781834,3.225219,18.10061,5.353401,-0.1238765,-0.9511608,-0.328128,-5.322937,41.62054,20.06273,1002.02
0.718791485,4.452736,18.28219,5.903623,-0.1288542,-0.9444828,-0.3245572,-5.322937,41.62054,20.06273,1002.02
0.723801136,5.373374,18.28219,5.475672,-0.1229688,-0.9472557,-0.3274904,-5.322937,41.62054,20.06273,1002.02
0.728815079,6.600892,18.34272,4.986586,-0.1210456,-0.9492822,-0.3232249,-5.322937,41.62054,20.06273,1002.02
0.733820915,7.153274,18.28219,4.864314,-0.1187541,-0.9460279,-0.314911,-5.322937,41.62054,20.06273,1002.02
0.738830090,7.828409,18.94802,5.169993,-0.1214965,-0.9587996,-0.3135007,-5.322937,41.62054,20.06273,1002.018
0.743840218,8.749046,19.7349,5.903623,-0.1223499,-0.956517,-0.3278369,-5.322937,41.62054,20.06273,1002.018
0.748849869,8.749046,20.58231,6.025895,-0.1273189,-0.9432556,-0.3341061,-5.311735,41.63143,19.2135,1002.018
0.753859520,8.012536,20.21914,5.65908,-0.1233852,-0.9430608,-0.3398278,-5.311735,41.63143,19.2135,1002.018
0.758869171,6.785019,19.67437,4.619771,-0.1258224,-0.9441409,-0.3370087,-5.311735,41.63143,19.2135,1002.018
0.763879299,5.189247,19.31119,3.886141,-0.1318928,-0.9517615,-0.3488878,-5.311735,41.63143,19.2135,1002.018
0.768888473,3.96173,19.31119,3.641598,-0.1248165,-0.9500957,-0.3324209,-5.311735,41.63143,19.2135,1002.018
0.773898601,2.427333,18.82696,3.702733,-0.1321178,-0.9502825,-0.3291331,-5.311735,41.63143,19.2135,1002.018
0.778908253,1.752198,19.06908,3.702733,-0.1346055,-0.9519886,-0.3205724,-5.311735,41.63143,19.2135,1002.017
0.783917427,0.7701846,19.06908,3.702733,-0.1320935,-0.9588056,-0.3198471,-5.311735,41.63143,19.2135,1002.017
0.788927555,0.3405536,18.88749,3.947277,-0.1336928,-0.9470618,-0.3218179,-5.311735,41.63143,19.2135,1002.017
0.793937683,0.5246812,19.1296,4.314092,-0.1322587,-0.9480968,-0.3184803,-5.311735,41.63143,19.2135,1002.017
0.798946857,1.261192,18.76643,4.252956,-0.1309266,-0.9352426,-0.3242252,-5.001961,41.95377,19.22166,1002.017
0.803956985,1.813574,18.46378,4.497499,-0.1298026,-0.9383898,-0.3349054,-5.001961,41.95377,19.22166,1002.017
0.808966637,2.427333,18.28219,4.314092,-0.1274196,-0.9339065,-0.337115,-5.001961,41.95377,19.22166,1002.017
0.813975811,2.795588,17.85849,4.375227,-0.1297642,-0.9382976,-0.3387455,-5.001961,41.95377,19.22166,1002.017
0.818987369,2.550085,17.37425,4.252956,-0.1268533,-0.9422843,-0.3335843,-5.001961,41.95377,19.22166,1002.017
0.823996067,2.427333,17.25319,4.436363,-0.1274062,-0.9379127,-0.3329427,-5.001961,41.95377,19.22166,1002.019
0.829005718,2.427333,17.43478,4.497499,-0.1303499,-0.9405669,-0.3258639,-5.001961,41.95377,19.22166,1002.019
0.834015369,1.936326,17.25319,4.680907,-0.129853,-0.9486067,-0.3160746,-5.001961,41.95377,19.22166,1002.019
0.839025021,1.506695,17.49531,4.92545,-0.1322473,-0.9505934,-0.3161726,-5.001961,41.95377,19.22166,1002.019
0.844035149,1.445319,17.97955,5.353401,-0.1307413,-0.9514557,-0.3200353,-5.001961,41.95377,19.22166,1002.019
0.849044323,1.322567,17.97955,5.292265,-0.1292423,-0.9518301,-0.3238795,-5.325155,41.94237,19.60853,1002.019
0.854054451,0.8929363,18.46378,5.536808,-0.1268189,-0.9487641,-0.3280645,-5.325155,41.94237,19.60853,1002.019
0.859064102,0.4633054,18.88749,5.231129,-0.1330992,-0.9518407,-0.3258381,-5.325155,41.94237,19.60853,1002.019
0.864073276,0.09505019,18.7059,5.231129,-0.1248352,-0.9481214,-0.3333069,-5.325155,41.94237,19.60853,1002.019
0.869083405,-0.3345808,19.00855,5.108858,-0.1296922,-0.9477159,-0.3328566,-5.325155,41.94237,19.60853,1002.019
0.874093533,-1.009715,18.7059,5.047722,-0.1247473,-0.951444,-0.3372765,-5.325155,41.94237,19.60853,1002.019
0.879102707,-1.439346,19.00855,4.986586,-0.1266265,-0.9558741,-0.3369822,-5.325155,41.94237,19.60853,1002.019
0.884112835,-1.930353,19.06908,4.619771,-0.129596,-0.9560663,-0.3307709,-5.325155,41.94237,19.60853,1002.019
0.889118671,-2.605488,19.06908,4.680907,-0.1289335,-0.9632038,-0.3382437,-5.325155,41.94237,19.60853,1002.019
0.894127846,-3.341998,19.31119,4.619771,-0.1275387,-0.9587806,-0.3385428,-5.325155,41.94237,19.60853,1002.019
0.899137974,-4.385387,19.43225,4.680907,-0.1299373,-0.9587584,-0.3409671,-6.070262,41.23195,19.58957,1002.019
0.904147625,-5.306026,19.1296,4.619771,-0.1285176,-0.959828,-0.3361894,-6.070262,41.23195,19.58957,1002.019
0.909156799,-6.103911,19.19013,4.619771,-0.127949,-0.9591143,-0.3452864,-6.070262,41.23195,19.58957,1002.019
0.914166927,-7.270053,18.94802,4.680907,-0.1276761,-0.9520433,-0.3344438,-6.070262,41.23195,19.58957,1002.019
0.919178963,-8.49757,19.06908,4.742043,-0.1286477,-0.9525684,-0.3335119,-6.070262,41.23195,19.58957,1002.019
0.924186230,-9.418208,18.94802,4.619771,-0.1262256,-0.9545533,-0.3306817,-6.070262,41.23195,19.58957,1002.019
0.929196358,-10.33885,19.1296,4.986586,-0.1233929,-0.9551945,-0.3225109,-6.070262,41.23195,19.58957,1002.019
0.934206009,-11.01398,19.1296,5.108858,-0.1258292,-0.9522338,-0.3253042,-6.070262,41.23195,19.58957,1002.019
0.939215183,-11.44361,19.37172,5.475672,-0.1257484,-0.9550686,-0.3292553,-6.070262,41.23195,19.58957,1002.019
0.944225311,-11.99599,19.00855,5.414536,-0.1195638,-0.9512122,-0.3232844,-6.070262,41.23195,19.58957,1002.017
0.949239254,-11.32086,19.19013,5.536808,-0.1175859,-0.9450307,-0.3355236,-5.305703,41.63729,18.75623,1002.017
0.954244614,-11.13673,19.06908,5.720216,-0.1165901,-0.9434379,-0.3402587,-5.305703,41.63729,18.75623,1002.017
0.959254742,-10.52297,18.94802,6.025895,-0.1156438,-0.9384304,-0.3448643,-5.305703,41.63729,18.75623,1002.017
0.964267254,-9.479584,18.7059,5.964759,-0.1108175,-0.9373955,-0.344299,-5.305703,41.63729,18.75623,1002.017
0.969274521,-8.743073,18.7059,6.025895,-0.1128483,-0.9341127,-0.3398688,-5.305703,41.63729,18.75623,1002.017
0.974283695,-7.822435,18.58484,5.903623,-0.1156925,-0.9319852,-0.348944,-5.305703,41.63729,18.75623,1002.017
0.979293823,-6.840422,18.52431,5.414536,-0.113282,-0.9324836,-0.3470184,-5.305703,41.63729,18.75623,1002.017
0.984303474,-6.594918,17.97955,4.986586,-0.1165767,-0.9378532,-0.3491756,-5.305703,41.63729,18.75623,1002.017
0.989312649,-7.024549,17.37425,4.436363,-0.1180547,-0.9399523,-0.3439839,-5.305703,41.63729,18.75623,1002.017
0.994322777,-7.822435,17.43478,4.314092,-0.1218703,-0.9469305,-0.3404412,-5.305703,41.63729,18.75623,1002.017
0.999332905,-8.436194,17.61637,4.497499,-0.1224457,-0.9461462,-0.3327287,-5.301836,41.25228,19.2098,1002.017
1.004342079,-8.681698,17.49531,4.803178,-0.1199069,-0.9513847,-0.3367482,-5.301836,41.25228,19.2098,1002.017
1.009352207,-8.620322,17.85849,5.169993,-0.1137173,-0.9465066,-0.3326604,-5.301836,41.25228,19.2098,1002.017
1.014361858,-8.374819,17.91902,5.536808,-0.1165413,-0.9498832,-0.3361789,-5.301836,41.25228,19.2098,1002.017
1.019371033,-7.822435,18.16113,5.65908,-0.1194931,-0.9464994,-0.3365584,-5.301836,41.25228,19.2098,1002.017
1.024381638,-7.45418,17.97955,5.842487,-0.108837,-0.940294,-0.3443906,-5.301836,41.25228,19.2098,1002.019
1.029391289,-7.208677,17.73743,5.475672,-0.1133376,-0.9341314,-0.3393936,-5.301836,41.25228,19.2098,1002.019
1.034400463,-6.779046,17.43478,5.353401,-0.1036021,-0.9353957,-0.3417526,-5.301836,41.25228,19.2098,1002.019
1.039410591,-6.594918,17.0716,4.92545,-0.1117035,-0.9407438,-0.3477983,-5.301836,41.25228,19.2098,1002.019
1.044420242,-6.165287,16.82949,4.680907,-0.1049392,-0.9396805,-0.3472137,-5.301836,41.25228,19.2098,1002.019
1.049429417,-5.919784,16.28472,4.803178,-0.1054002,-0.9416504,-0.3468124,-5.688634,41.2396,19.59566,1002.019
1.054439545,-5.797032,15.98207,4.558635,-0.1069538,-0.938883,-0.3409557,-5.688634,41.2396,19.59566,1002.019
1.059449673,-5.551529,15.86102,4.375227,-0.1079627,-0.9354594,-0.341796,-5.688634,41.2396,19.59566,1002.019
1.064458847,-6.165287,15.80049,4.252956,-0.1068447,-0.943669,-0.3449808,-5.688634,41.2396,19.59566,1002.019
1.069468498,-6.226663,15.55837,4.314092,-0.1103121,-0.939862,-0.3429466,-5.688634,41.2396,19.59566,1002.019
1.074478626,-6.472167,15.37678,4.008412,-0.1073312,-0.9421665,-0.3468502,-5.688634,41.2396,19.59566,1002.019
1.079488754,-6.840422,15.43731,4.008412,-0.107381,-0.939762,-0.3453177,-5.688634,41.2396,19.59566,1002.019
1.084497929,-6.963173,15.0136,4.069548,-0.1059456,-0.9357461,-0.3489954,-5.688634,41.2396,19.59566,1002.019
1.089503765,-7.331429,14.77149,3.763869,-0.1097594,-0.935653,-0.3552743,-5.688634,41.2396,19.59566,1002.019
1.094513893,-7.392805,14.46884,3.580462,-0.1044219,-0.9330324,-0.3594489,-5.688634,41.2396,19.59566,1002.019
1.099523067,-7.270053,14.16619,3.45819,-0.1106042,-0.9373881,-0.3649582,-5.007132,41.94875,19.61361,1002.019
1.104533196,-7.515556,13.68196,3.335918,-0.1033877,-0.9313475,-0.3680241,-5.007132,41.94875,19.61361,1002.018
1.109542847,-7.576932,13.19772,3.274782,-0.1038556,-0.9318193,-0.3690074,-5.007132,41.94875,19.61361,1002.018
1.114552498,-8.006563,12.89507,2.907968,-0.1034604,-0.9345509,-0.3566146,-5.007132,41.94875,19.61361,1002.018
1.119562149,-7.883811,12.77401,2.969103,-0.1062956,-0.9344205,-0.3638439,-5.007132,41.94875,19.61361,1002.018
1.124572277,-8.067939,12.35031,2.969103,-0.1043987,-0.9360054,-0.3576398,-5.007132,41.94875,19.61361,1002.018
1.129581451,-8.190691,12.28978,3.091375,-0.1038573,-0.9388906,-0.3591859,-5.007132,41.94875,19.61361,1002.018
1.134591579,-8.252067,12.22925,2.969103,-0.1038621,-0.9389022,-0.3587059,-5.007132,41.94875,19.61361,1002.018
1.137095928,-8.558946,12.22925,2.785696,-0.1034554,-0.9335291,-0.3584977,-5.007132,41.94875,19.61361,1002.018
1.142106056,-8.436194,12.04766,2.785696,-0.1034104,-0.9359452,-0.3595502,-5.007132,41.94875,19.61361,1002.018
1.147115707,-8.313442,11.80554,2.602288,-0.1025553,-0.9311565,-0.3550355,-5.322937,41.62054,20.06273,1002.018
1.152125359,-8.006563,11.62395,2.296609,-0.1059249,-0.929639,-0.3593339,-5.322937,41.62054,20.06273,1002.018
1.157135010,-8.006563,11.38184,2.235473,-0.09808303,-0.9353679,-0.3599586,-5.322937,41.62054,20.06273,1002.018
1.162145138,-7.76106,10.95813,1.868659,-0.1025162,-0.9280338,-0.3630848,-5.322937,41.62054,20.06273,1002.018
1.167154312,-7.515556,10.77654,1.868659,-0.1010838,-0.9265491,-0.3630149,-5.322937,41.62054,20.06273,1002.018
1.172164440,-7.024549,10.41337,1.99093,-0.09676837,-0.9250796,-0.3605159,-5.322937,41.62054,20.06273,1002.018
1.177174091,-6.656294,10.17125,1.562979,-0.1034877,-0.9285589,-0.3621529,-5.322937,41.62054,20.06273,1002.018
1.182183743,-6.410791,9.687013,1.318436,-0.09908137,-0.9278806,-0.3673712,-5.322937,41.62054,20.06273,1002.016
1.187193394,-5.674281,9.384366,1.135028,-0.09967977,-0.9231132,-0.362871,-5.322937,41.62054,20.06273,1002.016
1.192203522,-5.060522,9.02119,1.196164,-0.1024384,-0.9333997,-0.3632882,-5.322937,41.62054,20.06273,1002.016
1.197213650,-4.876394,8.536954,0.8904852,-0.1000885,-0.9269767,-0.3649438,-5.710597,41.60703,20.51391,1002.016
1.202222824,-4.324012,8.415895,0.7070777,-0.1020412,-0.9280497,-0.3621199,-5.710597,41.60703,20.51391,1002.016
1.207232475,-4.446764,7.992189,0.5236702,-0.1001524,-0.9235966,-0.3633743,-5.710597,41.60703,20.51391,1002.016
1.212242603,-4.139884,7.568483,0.4013985,-0.1063941,-0.9255707,-0.3663911,-5.710597,41.60703,20.51391,1002.016
1.217251778,-3.710253,6.963189,0.5236702,-0.104834,-0.9308465,-0.3694601,-5.710597,41.60703,20.51391,1002.016
1.222261906,-3.280622,6.600012,0.2791268,-0.1053102,-0.9262904,-0.3764988,-5.710597,41.60703,20.51391,1002.018
1.227271557,-2.973743,6.176306,0.1568552,-0.1088444,-0.9216346,-0.3691474,-5.710597,41.60703,20.51391,1002.018
1.232281208,-2.544112,5.873659,-0.148824,-0.1120906,-0.9248685,-0.378911,-5.710597,41.60703,20.51391,1002.018
1.237290859,-2.605488,5.449953,-0.3322315,-0.1073321,-0.9164242,-0.3819085,-5.710597,41.60703,20.51391,1002.018
1.242300987,-2.666864,5.147306,-0.5156389,-0.1077545,-0.9268827,-0.3736613,-5.710597,41.60703,20.51391,1002.018
1.247310162,-2.850991,4.784129,-0.7601823,-0.1116069,-0.9278919,-0.3746969,-5.711458,41.60619,20.57924,1002.018
1.252320290,-2.973743,4.663071,-0.882454,-0.1096087,-0.9272146,-0.3813794,-5.711458,41.60619,20.57924,1002.018
1.257329941,-3.587502,4.420953,-0.9435898,-0.1111135,-0.9308924,-0.3714429,-5.711458,41.60619,20.57924,1002.018
1.262339592,-3.833005,4.542012,-1.126997,-0.1106742,-0.9294794,-0.3689826,-5.711458,41.60619,20.57924,1002.018
1.267349243,-4.385387,4.118306,-1.249269,-0.1059022,-0.9250413,-0.3678078,-5.711458,41.60619,20.57924,1002.018
1.272359371,-4.999146,4.178835,-1.554948,-0.112125,-0.9279796,-0.3713416,-5.711458,41.60619,20.57924,1002.018
1.277368546,-4.876394,3.876188,-1.554948,-0.1117228,-0.9216079,-0.3720565,-5.711458,41.60619,20.57924,1002.018
1.282378674,-5.183274,3.513011,-2.105171,-0.1126256,-0.9255015,-0.3731741,-5.711458,41.60619,20.57924,1002.018
1.287384510,-4.999146,3.270894,-2.044035,-0.1126489,-0.9225286,-0.3749832,-5.711458,41.60619,20.57924,1002.018
1.292395115,-4.692267,3.089305,-2.288578,-0.1168891,-0.929875,-0.3767441,-5.711458,41.60619,20.57924,1002.018
1.297403812,-4.508139,2.60507,-2.41085,-0.1131857,-0.920642,-0.372514,-6.088357,41.21436,20.9614,1002.018
1.302413464,-3.894381,2.241893,-2.471986,-0.1135639,-0.9269561,-0.3741993,-6.088357,41.21436,20.9614,1002.017
1.307427406,-3.771629,1.878717,-2.716529,-0.1184303,-0.9255635,-0.3741921,-6.088357,41.21436,20.9614,1002.017
1.312432766,-3.587502,1.818187,-2.838801,-0.1122217,-0.9216496,-0.3706213,-6.088357,41.21436,20.9614,1002.017
1.317442894,-3.771629,1.818187,-2.899936,-0.1155274,-0.9235122,-0.3764892,-6.088357,41.21436,20.9614,1002.017
1.322453022,-3.955756,1.51554,-3.511295,-0.1111984,-0.9250386,-0.3712211,-6.088357,41.21436,20.9614,1002.017
1.327462196,-3.894381,1.091834,-3.511295,-0.1082948,-0.9199567,-0.3777274,-6.088357,41.21436,20.9614,1002.017
1.332471848,-4.20126,0.8497164,-3.816974,-0.1121078,-0.9264241,-0.3751263,-6.088357,41.21436,20.9614,1002.017
1.337481976,-4.385387,0.1838927,-4.306061,-0.1098534,-0.9182109,-0.3699877,-6.088357,41.21436,20.9614,1002.017
1.342491150,-4.324012,-0.1187545,-4.734012,-0.1068203,-0.9224091,-0.3763653,-6.088357,41.21436,20.9614,1002.017
1.347501278,-4.815019,-0.8451076,-4.978555,-0.110604,-0.926787,-0.3794505,-6.454055,40.83342,20.49434,1002.017
1.352513313,-4.446764,-1.389872,-5.161963,-0.1077886,-0.9193927,-0.3805842,-6.454055,40.83342,20.49434,1002.017
1.357520580,-4.876394,-1.934637,-5.223098,-0.1061734,-0.925041,-0.3884719,-6.454055,40.83342,20.49434,1002.017
1.362530232,-4.446764,-2.600461,-5.406506,-0.1042543,-0.9240485,-0.3879356,-6.454055,40.83342,20.49434,1002.017
1.367540360,-3.710253,-3.084697,-5.223098,-0.09979241,-0.9217227,-0.4007787,-6.454055,40.83342,20.49434,1002.017
1.372549534,-2.912367,-3.629461,-5.03969,-0.09795384,-0.9168852,-0.3976943,-6.454055,40.83342,20.49434,1002.017
1.377559662,-1.562098,-3.992638,-5.100826,-0.09507047,-0.9158902,-0.3966683,-6.454055,40.83342,20.49434,1002.017
1.382569313,-0.6414601,-4.234756,-5.651049,-0.1038595,-0.9086082,-0.400318,-6.454055,40.83342,20.49434,1002.017
1.387578964,0.09505019,-4.961109,-6.690358,-0.1014773,-0.9071555,-0.3983183,-6.454055,40.83342,20.49434,1002.017
1.392588616,0.09505019,-6.050639,-8.279889,-0.1042634,-0.9124603,-0.4028709,-6.454055,40.83342,20.49434,1002.017
1.397598744,-0.5187084,-7.019109,-9.258062,-0.1090442,-0.9234818,-0.3942056,-6.106506,41.90947,20.96818,1002.017
1.402607918,-2.42136,-8.04811,-9.808285,-0.1104939,-0.9275322,-0.3890878,-6.106506,41.90947,20.96818,1002.017
1.407618046,-4.139884,-8.592875,-9.808285,-0.1089398,-0.9378704,-0.3846615,-6.106506,41.90947,20.96818,1002.017
1.412627697,-5.98116,-8.956051,-9.686013,-0.1094105,-0.9398632,-0.3833002,-6.106506,41.90947,20.96818,1002.017
1.417637825,-7.515556,-9.198169,-9.808285,-0.1056959,-0.9341371,-0.3753594,-6.106506,41.90947,20.96818,1002.017
1.422646999,-8.620322,-9.258698,-9.808285,-0.1062471,-0.932285,-0.3714502,-6.106506,41.90947,20.96818,1002.017
1.427657127,-8.988577,-9.016581,-9.563742,-0.1034857,-0.9204774,-0.3733775,-6.106506,41.90947,20.96818,1002.019
1.432666779,-8.129315,-8.895522,-9.013519,-0.0981677,-0.909322,-0.3873181,-6.106506,41.90947,20.96818,1002.019
1.437676430,-6.656294,-8.956051,-8.70784,-0.1021105,-0.8979286,-0.3965318,-6.106506,41.90947,20.96818,1002.019
1.442686081,-4.446764,-9.500816,-9.686013,-0.102744,-0.8897119,-0.3933422,-6.106506,41.90947,20.96818,1002.019
1.447696209,-2.42136,-10.59035,-10.35851,-0.0992822,-0.8965609,-0.3906871,-6.457922,41.21843,20.04076,1002.019
1.452705383,-0.702836,-11.25617,-10.84759,-0.09737188,-0.9021519,-0.3803108,-6.457922,41.21843,20.04076,1002.019
1.457715511,0.9543122,-11.37723,-10.66419,-0.1008307,-0.9023626,-0.3736244,-6.457922,41.21843,20.04076,1002.019
1.462725163,2.304581,-11.01405,-10.41964,-0.1007049,-0.8980225,-0.3917171,-6.457922,41.21843,20.04076,1002.019
1.467734814,2.979716,-11.01405,-10.48078,-0.09963365,-0.9012964,-0.3971171,-6.457922,41.21843,20.04076,1002.019
1.472747326,2.672836,-11.67988,-11.21441,-0.1010759,-0.8942233,-0.4079131,-6.457922,41.21843,20.04076,1002.019
1.477754593,1.322567,-12.3457,-11.8869,-0.1028771,-0.9030093,-0.4092253,-6.457922,41.21843,20.04076,1002.019
1.482763767,-0.702836,-13.07205,-12.49826,-0.101875,-0.9049349,-0.4097696,-6.457922,41.21843,20.04076,1002.019
1.487770558,-3.403374,-13.3747,-13.04848,-0.1111439,-0.9082496,-0.3994119,-6.457922,41.21843,20.04076,1002.019
1.492779732,-5.244649,-13.97999,-13.23189,-0.1063179,-0.9082249,-0.3974435,-6.837847,40.43488,21.3991,1002.019
1.497788906,-7.270053,-15.00899,-13.53757,-0.105903,-0.9088899,-0.3897769,-6.837847,40.43488,21.3991,1002.019
1.502799034,-8.620322,-15.61429,-13.65984,-0.1094088,-0.9051751,-0.3839026,-6.837847,40.43488,21.3991,1002.019
1.507808685,-9.602336,-16.4617,-13.84325,-0.1073932,-0.911523,-0.3826836,-6.837847,40.43488,21.3991,1002.017
1.512818336,-9.418208,-17.36964,-13.90439,-0.1054867,-0.9034938,-0.3905287,-6.837847,40.43488,21.3991,1002.017
1.517827988,-8.129315,-17.91441,-13.65984,-0.1005923,-0.898257,-0.402296,-6.837847,40.43488,21.3991,1002.017
1.522838116,-6.226663,-19.48817,-14.21006,-0.1014841,-0.8960665,-0.4127921,-6.837847,40.43488,21.3991,1002.017
1.527848244,-4.262636,-20.81982,-14.82142,-0.09766961,-0.893129,-0.4107225,-6.837847,40.43488,21.3991,1002.017
1.532857418,-2.666864,-22.09094,-15.24937,-0.09271941,-0.8948252,-0.4184284,-6.837847,40.43488,21.3991,1002.017
1.537867069,-1.132467,-23.241,-15.98301,-0.09405681,-0.9001203,-0.4224864,-6.837847,40.43488,21.3991,1002.017
1.542877197,-0.08907739,-24.45158,-16.41096,-0.09208062,-0.90101,-0.4249042,-6.460087,40.82755,20.95161,1002.017
1.547886372,0.6474329,-25.23847,-16.96118,-0.08915102,-0.906971,-0.4188569,-6.460087,40.82755,20.95161,1002.017
1.552896500,1.13844,-25.7227,-17.08345,-0.08725841,-0.9065471,-0.414979,-6.460087,40.82755,20.95161,1002.017
1.557906151,1.199816,-26.26747,-17.57254,-0.09285622,-0.9136844,-0.4263546,-6.460087,40.82755,20.95161,1002.017
1.562915802,1.322567,-26.69117,-17.69481,-0.08742274,-0.9204244,-0.4270405,-6.460087,40.82755,20.95161,1002.017
1.567925453,1.199816,-26.93329,-18.12276,-0.091387,-0.9181686,-0.4217064,-6.460087,40.82755,20.95161,1002.017
1.572935581,0.7701846,-27.357,-18.1839,-0.09518208,-0.9200498,-0.4270992,-6.460087,40.82755,20.95161,1002.017
1.577946663,0.4633054,-27.59912,-18.85639,-0.08449166,-0.9203243,-0.4294115,-6.460087,40.82755,20.95161,1002.017
1.582954883,0.03367433,-27.65964,-19.10093,-0.09232271,-0.9191124,-0.4236731,-6.460087,40.82755,20.95161,1002.017
1.587964535,-0.3959567,-27.7807,-19.46775,-0.0903392,-0.9194798,-0.4275124,-6.460087,40.82755,20.95161,1002.017
1.592974186,-0.5187084,-27.84123,-20.07911,-0.09268706,-0.9178213,-0.4370815,-7.235406,40.80051,21.85398,1002.017
1.597983837,-0.8869636,-28.386,-20.26251,-0.09519345,-0.9175532,-0.4294068,-7.235406,40.80051,21.85398,1002.017
1.602993965,-1.255219,-28.44653,-20.44592,-0.09226312,-0.9204837,-0.4275687,-7.235406,40.80051,21.85398,1002.017
1.608003139,-1.193843,-28.74917,-20.93501,-0.09179225,-0.9174806,-0.430333,-7.235406,40.80051,21.85398,1002.017
1.613013267,-1.439346,-29.23341,-21.30182,-0.08832512,-0.9222977,-0.4309642,-7.235406,40.80051,21.85398,1002.017
1.618022919,-1.807601,-29.65712,-21.36296,-0.08740558,-0.9188688,-0.4308251,-7.235406,40.80051,21.85398,1002.017
1.623032570,-2.482736,-29.8387,-21.66864,-0.08167623,-0.9129301,-0.4305453,-7.235406,40.80051,21.85398,1002.017
1.628042221,-2.605488,-30.32294,-21.91318,-0.08367794,-0.908568,-0.4303982,-7.235406,40.80051,21.85398,1002.015
1.633052349,-2.605488,-30.8677,-22.15772,-0.07642156,-0.9059652,-0.4326334,-7.235406,40.80051,21.85398,1002.015
1.638066292,-1.930353,-31.29141,-22.34113,-0.08322097,-0.9035792,-0.4345286,-7.235406,40.80051,21.85398,1002.015
1.643071651,-0.702836,-32.38094,-22.83022,-0.07559519,-0.9012457,-0.4252386,-7.219475,40.42723,21.39301,1002.015
1.648081303,0.9543122,-32.9257,-22.76908,-0.07372832,-0.8983596,-0.4222282,-7.219475,40.42723,21.39301,1002.015
1.653091431,2.672836,-33.83364,-23.38044,-0.0808332,-0.9086753,-0.424129,-7.219475,40.42723,21.39301,1002.015
1.658100605,4.329985,-34.37841,-23.56385,-0.07512228,-0.8997521,-0.4261383,-7.219475,40.42723,21.39301,1002.015
1.663110733,5.680254,-35.10476,-24.05293,-0.07583253,-0.8917197,-0.4152685,-7.219475,40.42723,21.39301,1002.015
1.668120384,6.662267,-35.34688,-24.11407,-0.07848588,-0.902763,-0.424843,-7.219475,40.42723,21.39301,1002.018
1.673130035,6.785019,-35.52847,-24.54202,-0.07553283,-0.9010959,-0.4314788,-7.219475,40.42723,21.39301,1002.018
1.678139687,6.969147,-35.95218,-24.54202,-0.07638215,-0.9114233,-0.4289967,-7.219475,40.42723,21.39301,1002.018
1.683149815,6.846395,-36.19429,-24.78657,-0.07643896,-0.9085309,-0.4274457,-7.219475,40.42723,21.39301,1002.018
1.688155174,6.048509,-36.37588,-25.27565,-0.07637028,-0.9118996,-0.4294952,-7.219475,40.42723,21.39301,1002.018
1.693164825,5.127871,-36.55747,-25.39792,-0.07975483,-0.912437,-0.4295475,-7.93119,40.40147,22.29639,1002.018
1.698174953,4.391361,-36.49694,-25.5202,-0.07392069,-0.9092754,-0.4356188,-7.93119,40.40147,22.29639,1002.018
1.703184128,3.409347,-36.73906,-25.88701,-0.07987276,-0.9046435,-0.4287716,-7.93119,40.40147,22.29639,1002.018
1.708194256,2.059078,-37.04171,-26.07042,-0.08143817,-0.9013997,-0.4224164,-7.93119,40.40147,22.29639,1002.016
1.713203907,0.7088088,-37.647,-26.62064,-0.08048753,-0.907992,-0.4116068,-7.93119,40.40147,22.29639,1002.016
1.718213558,-0.3959567,-37.22329,-26.92632,-0.0824488,-0.9146383,-0.400346,-7.93119,40.40147,22.29639,1002.016
1.723223209,-0.5800843,-37.10223,-26.86518,-0.07853203,-0.9149888,-0.403686,-7.93119,40.40147,22.29639,1002.016
1.728233814,0.3405536,-36.79959,-26.43723,-0.07373358,-0.9099824,-0.4058529,-7.93119,40.40147,22.29639,1002.016
1.733243465,1.13844,-36.92065,-26.31496,-0.07181548,-0.9034398,-0.4127935,-7.93119,40.40147,22.29639,1002.016
1.738252640,2.365957,-37.16277,-26.62064,-0.0684961,-0.8949821,-0.4172456,-7.93119,40.40147,22.29639,1002.016
1.743262291,2.91834,-37.52594,-27.53768,-0.0645715,-0.8927899,-0.4248132,-7.927323,40.01645,22.74997,1002.016
1.748272419,3.041091,-38.31282,-28.33244,-0.06363302,-0.8903252,-0.4251912,-7.927323,40.01645,22.74997,1002.016
1.753281593,3.347971,-39.0997,-29.06607,-0.05972733,-0.8967599,-0.4191527,-7.927323,40.01645,22.74997,1002.016
1.758291721,3.532098,-40.00765,-29.73857,-0.06162094,-0.9012246,-0.4174184,-7.927323,40.01645,22.74997,1002.016
1.763301849,3.716226,-40.61294,-30.22765,-0.05622282,-0.9055256,-0.4180117,-7.927323,40.01645,22.74997,1002.016
1.768311024,4.329985,-41.09718,-30.4722,-0.05580798,-0.9061906,-0.4103451,-7.927323,40.01645,22.74997,1002.016
1.773324966,4.575488,-41.64194,-30.65561,-0.05579256,-0.9117063,-0.4043082,-7.927323,40.01645,22.74997,1002.016
1.778330803,5.066495,-41.88406,-30.77788,-0.05570242,-0.9155281,-0.4078163,-7.927323,40.01645,22.74997,1002.016
1.783339977,5.496126,-42.06565,-30.77788,-0.04797918,-0.9164941,-0.4034559,-7.927323,40.01645,22.74997,1002.016
1.788350105,5.680254,-41.58141,-30.77788,-0.0405483,-0.9255874,-0.4066149,-7.927323,40.01645,22.74997,1002.02
1.793359756,5.680254,-41.58141,-31.14469,-0.0405892,-0.9261903,-0.4018332,-9.082107,40.37264,22.73539,1002.02
1.798369408,5.803005,-41.15771,-31.45037,-0.03481866,-0.9282295,-0.394649,-9.082107,40.37264,22.73539,1002.02
1.803379059,6.17126,-41.09718,-32.00059,-0.03379129,-0.9346375,-0.3915196,-9.082107,40.37264,22.73539,1002.02
1.808389187,6.907771,-40.67347,-32.48968,-0.03042568,-0.933136,-0.3909504,-9.082107,40.37264,22.73539,1002.02
1.813398361,7.767033,-40.61294,-32.79536,-0.02552395,-0.9369677,-0.39105,-9.082107,40.37264,22.73539,1002.02
1.818408489,9.485557,-40.43135,-33.0399,-0.01729878,-0.9353609,-0.3918725,-9.082107,40.37264,22.73539,1002.02
1.823418140,11.38821,-40.24976,-33.83467,-0.009045582,-0.9367155,-0.3913659,-9.082107,40.37264,22.73539,1002.02
1.828427792,13.35224,-40.43135,-34.26262,-0.006642185,-0.9367262,-0.3894217,-9.082107,40.37264,22.73539,1002.017
1.833437443,14.64113,-40.37082,-34.93511,-0.0008009456,-0.9436434,-0.3824224,-9.082107,40.37264,22.73539,1002.017
1.838447571,15.9914,-40.06818,-35.60761,0.007415656,-0.9476098,-0.374808,-9.082107,40.37264,22.73539,1002.017
1.843457222,17.15754,-39.40235,-35.91329,0.01704086,-0.949139,-0.3661266,-9.066175,39.99935,22.27442,1002.017
1.848466873,17.28029,-38.85759,-36.21897,0.0247608,-0.9440555,-0.3697047,-9.066175,39.99935,22.27442,1002.017
1.853476524,17.09616,-38.37335,-36.64692,0.03149631,-0.9430614,-0.36624,-9.066175,39.99935,22.27442,1002.017
1.858486652,16.78928,-38.13124,-37.25827,0.03624047,-0.9346516,-0.3677974,-9.066175,39.99935,22.27442,1002.017
1.863495827,15.93002,-38.43388,-37.99191,0.05354496,-0.9306901,-0.3593154,-9.066175,39.99935,22.27442,1002.017
1.868505955,15.00938,-38.55494,-38.60326,0.06159716,-0.920917,-0.3545434,-9.066175,39.99935,22.27442,1002.015
1.873515606,14.27287,-38.676,-39.27576,0.0707285,-0.9214661,-0.3463099,-9.066175,39.99935,22.27442,1002.015
1.878525257,13.90462,-38.97865,-39.76484,0.0776743,-0.90497,-0.3374485,-9.066175,39.99935,22.27442,1002.015
1.883534908,14.08875,-39.76553,-40.13166,0.08812534,-0.894209,-0.3316553,-9.066175,39.99935,22.27442,1002.015
1.888541222,14.64113,-40.43135,-40.3762,0.0995972,-0.8873479,-0.3255204,-9.066175,39.99935,22.27442,1002.015
1.893550396,15.93002,-41.763,-40.74302,0.1086361,-0.8739848,-0.3273296,-9.066175,39.99935,22.27442,1002.015
1.898560047,17.46442,-42.67094,-40.92643,0.1219246,-0.8638533,-0.3138456,-9.066175,39.99935,22.27442,1002.015
1.903570175,20.0422,-44.06312,-41.17097,0.1314293,-0.8580999,-0.3034468,-9.066175,39.99935,22.27442,1002.015
1.908748627,22.74274,-45.33424,-41.41551,0.1478397,-0.8514484,-0.3059224,-9.066175,39.99935,22.27442,1002.013
1.913758278,25.25915,-46.72641,-41.59892,0.1545942,-0.8514184,-0.3029748,-9.066175,39.99935,22.27442,1002.013
1.918767929,28.08244,-48.60283,-42.02687,0.1661153,-0.8489822,-0.2955662,-9.066175,39.99935,22.27442,1002.013
1.923778057,30.59885,-50.05553,-42.08801,0.1767045,-0.8515189,-0.2849921,-9.066175,39.99935,22.27442,1002.013
1.928787231,32.74701,-51.32665,-42.14914,0.1822306,-0.86157,-0.2901275,-9.066175,39.99935,22.27442,1002.013
1.933797836,34.52691,-52.41618,-42.02687,0.1863189,-0.8761478,-0.2906436,-9.066175,39.99935,22.27442,1002.013
1.938807011,35.69305,-53.56624,-41.72119,0.1914214,-0.8921173,-0.2936056,-9.066175,39.99935,22.27442,1002.013
1.943816662,35.87717,-54.77683,-41.17097,0.1947638,-0.9152596,-0.3040645,-10.51315,39.59672,21.7901,1002.013
1.948826313,35.63167,-55.44265,-40.74302,0.1922403,-0.9345729,-0.3149135,-10.51315,39.59672,21.7901,1002.015
1.953836441,34.34278,-56.16901,-40.13166,0.1931344,-0.9552885,-0.3262642,-10.51315,39.59672,21.7901,1002.015
1.958845615,32.37875,-56.71377,-39.27576,0.1809366,-0.9772285,-0.335382,-10.51315,39.59672,21.7901,1002.015
1.963859558,29.98509,-57.44012,-38.17531,0.1767393,-0.9854814,-0.34006,-10.51315,39.59672,21.7901,1002.015
1.968865395,27.77556,-57.8033,-37.136,0.1691295,-0.9913103,-0.3461193,-10.51315,39.59672,21.7901,1002.015
1.973874569,25.75016,-58.10595,-36.52464,0.1565664,-0.9883832,-0.3538141,-10.51315,39.59672,21.7901,1002.015
1.978884697,24.39989,-58.10595,-35.97442,0.1518164,-0.9912542,-0.3592535,-10.51315,39.59672,21.7901,1002.015
1.983894825,24.03164,-58.8323,-35.48534,0.1513046,-0.9852693,-0.3647967,-10.51315,39.59672,21.7901,1002.015
1.988904476,24.27714,-59.07442,-35.24079,0.1378641,-0.9897082,-0.3713385,-10.51315,39.59672,21.7901,1002.013
1.993914127,24.70677,-59.4376,-34.75171,0.1288689,-1.000947,-0.3766556,-10.88272,39.60079,20.86945,1002.013
1.998923779,25.32053,-59.4376,-34.50716,0.1207202,-1.00338,-0.3821103,-10.88272,39.60079,20.86945,1002.013
2.003933907,25.07502,-59.256,-33.28445,0.109305,-1.014144,-0.3883932,-10.88272,39.60079,20.86945,1002.013
2.008943081,24.52264,-58.65071,-32.42854,0.09682495,-1.024142,-0.3864884,-10.88272,39.60079,20.86945,1002.013
2.013953209,23.47925,-57.92436,-31.75605,0.0931334,-1.033851,-0.391217,-10.88272,39.60079,20.86945,1002.013
2.018962860,21.39247,-56.47165,-30.4722,0.07675656,-1.040422,-0.3921015,-10.88272,39.60079,20.86945,1002.013
2.023972511,18.69193,-55.32159,-29.12721,0.06079831,-1.042096,-0.3932763,-10.88272,39.60079,20.86945,1002.013
2.028982162,15.43902,-53.86889,-27.53768,0.05449075,-1.03918,-0.3965882,-10.88272,39.60079,20.86945,1002.01
2.033992291,11.94059,-52.71883,-26.31496,0.03684764,-1.026287,-0.3953027,-10.88272,39.60079,20.86945,1002.01
2.039001465,8.871799,-51.75036,-24.8477,0.03880261,-1.025713,-0.397665,-10.88272,39.60079,20.86945,1002.01
2.044011593,6.416764,-50.78189,-23.62498,0.03505974,-1.001871,-0.3963127,-10.89865,39.97408,21.33043,1002.01
2.049021244,4.145857,-50.17659,-22.34113,0.03307112,-0.9749091,-0.3813712,-10.89865,39.97408,21.33043,1002.01
2.054030418,2.734212,-49.69236,-21.42409,0.02986176,-0.9564951,-0.3773374,-10.89865,39.97408,21.33043,1002.01
2.059040546,2.243205,-49.20812,-20.38478,0.0280067,-0.9322407,-0.3716271,-10.89865,39.97408,21.33043,1002.01
2.064050674,2.734212,-49.32918,-19.59002,0.03193327,-0.9039413,-0.3681112,-10.89865,39.97408,21.33043,1002.01
2.069059849,3.777602,-48.72388,-19.28434,0.03745504,-0.8843668,-0.3663536,-10.89865,39.97408,21.33043,1002.01
2.074069977,5.680254,-48.72388,-18.48957,0.04393754,-0.8693411,-0.3575525,-10.89865,39.97408,21.33043,1002.01
2.079079628,7.521529,-48.42124,-17.75594,0.04770583,-0.8594476,-0.3605042,-10.89865,39.97408,21.33043,1002.01
2.084088802,9.853812,-47.75541,-17.20572,0.05483775,-0.8561341,-0.3516621,-10.89865,39.97408,21.33043,1002.01
2.089098930,12.00197,-47.57383,-16.16641,0.06110087,-0.8546131,-0.3501038,-11.6619,39.95877,21.31824,1002.01
2.094104767,14.76388,-47.27118,-15.06597,0.07067683,-0.8517174,-0.342696,-11.6619,39.95877,21.31824,1002.01
2.099114895,17.95543,-46.54483,-14.02666,0.07832959,-0.846795,-0.3395538,-11.6619,39.95877,21.31824,1002.01
2.104124069,20.47183,-46.30271,-12.98735,0.08259077,-0.8419222,-0.3364453,-11.6619,39.95877,21.31824,1002.01
2.109134197,22.80412,-46.24218,-12.49826,0.087269,-0.8286229,-0.3382979,-11.6619,39.95877,21.31824,1002.012
2.114143848,23.90888,-46.12112,-12.37599,0.08776741,-0.8306016,-0.336927,-11.6619,39.95877,21.31824,1002.012
2.119153500,23.90888,-46.908,-12.43713,0.09020617,-0.8330514,-0.3350752,-11.6619,39.95877,21.31824,1002.012
2.124163151,24.03164,-46.60535,-11.8869,0.09551542,-0.8380704,-0.3260868,-11.6619,39.95877,21.31824,1002.012
2.129173279,24.21576,-46.42377,-11.39782,0.09761661,-0.8472415,-0.3292988,-11.6619,39.95877,21.31824,1002.012
2.134182453,24.15439,-45.93953,-10.23624,0.1035783,-0.8614414,-0.324017,-11.6619,39.95877,21.31824,1002.012
2.139192581,23.78613,-45.75794,-9.258062,0.102658,-0.8679008,-0.3199468,-12.0375,39.95697,20.85487,1002.012
2.144202232,23.29512,-45.21318,-8.524432,0.1154463,-0.8712968,-0.3334097,-12.0375,39.95697,20.85487,1002.012
2.149211884,22.55861,-44.06312,-7.729667,0.1125622,-0.8753225,-0.3302265,-12.0375,39.95697,20.85487,1002.014
2.154221535,22.31311,-43.76047,-6.690358,0.1195212,-0.8818685,-0.3380981,-12.0375,39.95697,20.85487,1002.014
2.159231663,22.92687,-42.67094,-5.589913,0.1272482,-0.8868638,-0.3286054,-12.0375,39.95697,20.85487,1002.014
2.164240837,24.15439,-41.64194,-4.489468,0.1186165,-0.8832424,-0.3424834,-12.0375,39.95697,20.85487,1002.014
2.169250965,25.32053,-40.67347,-3.816974,0.1224364,-0.8878641,-0.3306107,-12.0375,39.95697,20.85487,1002.014
2.174260616,26.30254,-39.94712,-3.389023,0.1346925,-0.899963,-0.3275922,-12.0375,39.95697,20.85487,1002.014
2.179269791,27.1618,-39.52341,-3.266752,0.1313476,-0.9049484,-0.3254108,-12.0375,39.95697,20.85487,1002.014
2.184279919,27.10043,-38.79706,-2.777665,0.1323565,-0.908372,-0.3245706,-12.0375,39.95697,20.85487,1002.014
2.189290047,27.34593,-37.82859,-1.371541,0.124427,-0.916336,-0.3436877,-10.90638,40.74411,20.42326,1002.014
2.194299698,27.59143,-37.04171,-0.2710957,0.1142254,-0.9084723,-0.3521335,-10.90638,40.74411,20.42326,1002.014
2.199309349,26.30254,-36.55747,0.7682135,0.1167444,-0.9157772,-0.3514267,-10.90638,40.74411,20.42326,1002.014
2.204319000,24.21576,-35.89165,1.440708,0.117209,-0.9188468,-0.3452926,-10.90638,40.74411,20.42326,1002.014
2.209329128,21.76073,-35.16529,2.113202,0.1134041,-0.9313521,-0.3352331,-10.90638,40.74411,20.42326,1002.014
2.214338303,19.61257,-34.37841,2.907968,0.1092364,-0.9460964,-0.3339112,-10.90638,40.74411,20.42326,1002.014
2.219348431,17.52579,-33.531,3.702733,0.105326,-0.9492642,-0.3263804,-10.90638,40.74411,20.42326,1002.014
2.224358082,16.2369,-32.80465,4.92545,0.09903001,-0.9478352,-0.3287878,-10.90638,40.74411,20.42326,1002.014
2.229367733,15.56177,-32.19935,5.842487,0.09857228,-0.9558547,-0.3204482,-10.90638,40.74411,20.42326,1002.014
2.234377384,15.62314,-31.8967,6.942933,0.09373344,-0.9594437,-0.3163057,-10.90638,40.74411,20.42326,1002.014
2.239387512,15.86865,-31.35194,8.471329,0.09718034,-0.9587567,-0.3224936,-10.88442,40.37668,19.50502,1002.014
2.244396687,16.54378,-30.8677,9.510638,0.09215742,-0.9506729,-0.3164673,-10.88442,40.37668,19.50502,1002.014
2.249406815,17.34167,-30.56506,10.54995,0.09469135,-0.9559228,-0.3200068,-10.88442,40.37668,19.50502,1002.014
2.254416466,17.58717,-29.95976,11.28358,0.09418029,-0.9469073,-0.3297591,-10.88442,40.37668,19.50502,1002.014
2.259425640,18.2623,-30.08082,12.32289,0.09660313,-0.9458618,-0.331138,-10.88442,40.37668,19.50502,1002.014
2.264439583,18.44643,-29.59659,12.99538,0.09572197,-0.9491984,-0.3351173,-10.88442,40.37668,19.50502,1002.014
2.269445896,18.81469,-29.71764,13.85128,0.09528392,-0.9551514,-0.3315038,-10.88442,40.37668,19.50502,1002.016
2.274455071,19.12157,-29.53606,14.64605,0.09338853,-0.9570965,-0.3330372,-10.88442,40.37668,19.50502,1002.016
2.279465199,19.36707,-29.05182,15.9299,0.08512677,-0.9613151,-0.3251069,-10.88442,40.37668,19.50502,1002.016
2.284474850,19.30569,-28.386,17.21375,0.08382167,-0.9619896,-0.3385988,-10.88442,40.37668,19.50502,1002.016
2.289484978,19.12157,-27.96229,18.61988,0.07667941,-0.9683567,-0.3422717,-9.81304,40.77752,19.52597,1002.016
2.294490337,18.44643,-27.23594,19.84259,0.07324185,-0.970031,-0.3356407,-9.81304,40.77752,19.52597,1002.016
2.299499989,16.85066,-26.63064,21.43213,0.07566167,-0.9715166,-0.333272,-9.81304,40.77752,19.52597,1002.016
2.304510117,14.88663,-25.90429,22.47143,0.06403604,-0.9701654,-0.3357324,-9.81304,40.77752,19.52597,1002.016
2.309519291,13.35224,-24.99635,23.81642,0.05770222,-0.9668082,-0.3371058,-9.81304,40.77752,19.52597,1002.02
2.314529419,11.51096,-24.08841,25.03914,0.05725405,-0.9652137,-0.3428154,-9.81304,40.77752,19.52597,1002.02
2.319539070,10.52895,-23.60417,25.89504,0.05176983,-0.9601099,-0.3349848,-9.81304,40.77752,19.52597,1002.02
2.324548721,9.608309,-23.05941,27.05662,0.04221484,-0.9654792,-0.3410449,-9.81304,40.77752,19.52597,1002.02
2.329558373,9.240053,-22.57517,27.91252,0.04362448,-0.9685922,-0.3325011,-9.81304,40.77752,19.52597,1002.02
2.334568501,9.055926,-22.09094,29.19637,0.04511086,-0.9715208,-0.3316375,-9.81304,40.77752,19.52597,1002.02
2.339577675,8.933174,-21.66723,30.23568,0.04329601,-0.9773108,-0.3357188,-8.687954,41.55879,19.55164,1002.02
2.344587803,9.117302,-21.06194,32.13089,0.04180231,-0.9749045,-0.3351609,-8.687954,41.55879,19.55164,1002.02
2.349597454,8.564919,-20.69876,33.47588,0.0408709,-0.9778571,-0.3348014,-8.687954,41.55879,19.55164,1002.02
2.354609490,7.644281,-20.09347,34.57633,0.04778138,-0.9769477,-0.3481559,-8.687954,41.55879,19.55164,1002.02
2.359616757,6.662267,-19.66976,35.86018,0.05415332,-0.981223,-0.3492195,-8.687954,41.55879,19.55164,1002.02
2.364626885,5.618878,-19.73029,36.89949,0.04949903,-0.9848738,-0.3628562,-8.687954,41.55879,19.55164,1002.02
2.369636059,5.066495,-20.03294,37.87766,0.05696249,-0.9979271,-0.3637631,-8.687954,41.55879,19.55164,1002.02
2.374646187,4.452736,-20.21452,38.67243,0.05707889,-1.002191,-0.3692097,-8.687954,41.55879,19.55164,1002.02
2.379655838,4.023106,-20.33558,39.52833,0.05905028,-1.003092,-0.3711475,-8.687954,41.55879,19.55164,1002.02
2.384665966,3.286595,-20.39611,40.20082,0.06363063,-1.01613,-0.3744833,-8.687954,41.55879,19.55164,1002.02
2.389675140,2.365957,-20.5777,40.5065,0.07000712,-1.021404,-0.374624,-6.876194,43.05423,19.2033,1002.018
2.394685268,0.8929363,-20.154,41.3624,0.07237086,-1.016967,-0.3749135,-6.876194,43.05423,19.2033,1002.018
2.399694920,-0.08907739,-19.73029,41.85149,0.07733016,-1.020661,-0.3807733,-6.876194,43.05423,19.2033,1002.018
2.404704571,-1.132467,-18.76182,42.0349,0.08217962,-1.022599,-0.378399,-6.876194,43.05423,19.2033,1002.018
2.409714222,-2.237232,-18.39864,42.82967,0.08509859,-1.023032,-0.3788685,-6.876194,43.05423,19.2033,1002.018
2.412219048,-2.789615,-17.85388,42.82967,0.08304942,-1.016765,-0.3767273,-6.876194,43.05423,19.2033,1002.018
2.417228699,-3.955756,-17.67229,42.70739,0.08693965,-1.008093,-0.3898149,-6.876194,43.05423,19.2033,1002.018
2.422238827,-5.306026,-17.67229,42.27944,0.08883001,-1.00717,-0.3863985,-6.876194,43.05423,19.2033,1002.018
2.427248001,-6.840422,-17.67229,41.60695,0.08888227,-1.009063,-0.3888725,-6.876194,43.05423,19.2033,1002.018
2.432258129,-8.374819,-17.67229,41.05672,0.08590019,-1.01181,-0.3779535,-6.876194,43.05423,19.2033,1002.018
2.437268257,-9.970591,-17.61176,40.87332,0.08489585,-1.018976,-0.3647816,-5.02693,42.70705,19.621,1002.018
2.442277432,-11.75049,-17.61176,40.87332,0.07506114,-1.039509,-0.3699797,-5.02693,42.70705,19.621,1002.018
2.447287083,-12.2415,-17.97494,41.11786,0.06380394,-1.060494,-0.3776109,-5.02693,42.70705,19.621,1002.018
2.452297211,-12.60975,-18.21705,41.24014,0.05682534,-1.083631,-0.3742322,-5.02693,42.70705,19.621,1002.018
2.457306385,-13.22351,-18.82235,41.05672,0.04885298,-1.109871,-0.3642539,-5.02693,42.70705,19.621,1002.018
2.462316513,-14.45103,-19.5487,41.05672,0.06036256,-1.143155,-0.3538798,-5.02693,42.70705,19.621,1002.018
2.467326164,-16.84469,-19.5487,41.11786,0.07922069,-1.170734,-0.311987,-5.02693,42.70705,19.621,1002.018
2.472336292,-19.66798,-18.88288,41.66808,0.08191954,-1.179269,-0.2800928,-5.02693,42.70705,19.621,1002.018
2.477345467,-23.28915,-18.70129,41.48468,0.06809352,-1.172518,-0.26459,-5.02693,42.70705,19.621,1002.018
2.482355595,-23.65741,-19.97241,40.38423,0.04439384,-1.169232,-0.2738174,-5.02693,42.70705,19.621,1002.018
2.487365723,-23.41191,-22.03041,39.22265,0.03986929,-1.153535,-0.2795094,-3.882045,42.73001,19.63927,1002.018
2.492370606,-21.81613,-24.39105,38.30561,0.04299907,-1.146038,-0.2642992,-3.882045,42.73001,19.63927,1002.018
2.497380734,-20.52724,-26.02535,36.16586,0.03692933,-1.132602,-0.2580792,-3.882045,42.73001,19.63927,1002.018
2.502390862,-18.74734,-27.96229,33.59816,0.04544363,-1.136001,-0.2331423,-3.882045,42.73001,19.63927,1002.018
2.507400036,-17.15157,-30.08082,30.84704,0.03947874,-1.144524,-0.2070951,-3.882045,42.73001,19.63927,1002.018
2.512410164,-15.55579,-31.83617,28.40161,0.04238513,-1.157103,-0.1897678,-3.882045,42.73001,19.63927,1002.02
2.517423153,-14.5124,-32.86517,26.20072,0.04561746,-1.161474,-0.1682812,-3.882045,42.73001,19.63927,1002.02
2.522428989,-13.83727,-33.28888,24.36664,0.04587021,-1.15849,-0.1499063,-3.882045,42.73001,19.63927,1002.02
2.527439117,-13.71452,-33.47047,23.08279,0.04369405,-1.152023,-0.1357462,-3.882045,42.73001,19.63927,1002.02
2.532449245,-14.0214,-33.9547,21.86007,0.03956287,-1.136539,-0.132313,-3.882045,42.73001,19.63927,1002.02
2.537458420,-15.06479,-33.89418,20.33168,0.03590483,-1.118551,-0.1311826,-2.027556,41.67516,21.03008,1002.02
2.542468071,-15.92405,-34.31788,18.80328,0.02346186,-1.096299,-0.1299727,-2.027556,41.67516,21.03008,1002.02
2.547478199,-16.53781,-35.04424,16.84694,0.0112678,-1.057444,-0.1286093,-2.027556,41.67516,21.03008,1002.02
2.552487373,-16.96744,-35.89165,14.70718,-0.002468151,-1.035334,-0.1427929,-2.027556,41.67516,21.03008,1002.019
2.557497501,-17.39707,-36.79959,12.44516,-0.0256493,-1.002322,-0.1489626,-2.027556,41.67516,21.03008,1002.019
2.562507629,-18.01083,-38.19176,10.42768,-0.04290968,-0.9745225,-0.1581579,-2.027556,41.67516,21.03008,1002.019
2.567517280,-18.56321,-39.2813,8.349057,-0.06604841,-0.9444379,-0.1644386,-2.027556,41.67516,21.03008,1002.019
2.572526455,-19.42247,-40.85506,5.964759,-0.08608102,-0.93352,-0.1637312,-2.027556,41.67516,21.03008,1002.019
2.577536583,-20.58862,-42.42883,3.947277,-0.1087089,-0.913461,-0.1588565,-2.027556,41.67516,21.03008,1002.019
2.582546711,-22.24576,-43.76047,1.562979,-0.1268547,-0.9061713,-0.1481788,-2.027556,41.67516,21.03008,1002.019
2.587555885,-22.9209,-44.72894,-0.6379106,-0.139493,-0.9069583,-0.1435227,-0.1397295,42.01767,21.97817,1002.019
2.592566013,-24.08704,-46.00006,-2.533122,-0.1584202,-0.9068042,-0.1412923,-0.1397295,42.01767,21.97817,1002.019
2.597575664,-24.08704,-47.15012,-3.939246,-0.1735968,-0.9099234,-0.1223337,-0.1397295,42.01767,21.97817,1002.019
2.602584839,-24.20979,-48.36071,-5.100826,-0.1824049,-0.9122785,-0.1109741,-0.1397295,42.01767,21.97817,1002.019
2.607594967,-22.85952,-50.05553,-5.956728,-0.1893684,-0.9323505,-0.1132447,-0.1397295,42.01767,21.97817,1002.019
2.612605095,-20.64999,-51.75036,-6.140136,-0.1956565,-0.9379699,-0.1067906,-0.1397295,42.01767,21.97817,1002.019
2.617614269,-18.31771,-53.62677,-6.201272,-0.2038266,-0.9495403,-0.09769762,-0.1397295,42.01767,21.97817,1002.019
2.622624874,-15.92405,-55.38212,-6.201272,-0.206747,-0.9551675,-0.08880965,-0.1397295,42.01767,21.97817,1002.019
2.627634048,-13.46902,-56.53218,-6.445815,-0.203699,-0.9669017,-0.08634436,-0.1397295,42.01767,21.97817,1002.019
2.632643223,-10.58435,-57.98489,-6.201272,-0.2049662,-0.9790953,-0.08778115,-0.1397295,42.01767,21.97817,1002.019
2.637653351,-8.436194,-59.256,-6.445815,-0.201518,-0.9829483,-0.08789529,1.325396,41.72519,22.45572,1002.019
2.642663479,-5.612905,-60.28501,-6.873765,-0.1908165,-0.9867296,-0.08649698,1.325396,41.72519,22.45572,1002.019
2.647673130,-3.648877,-61.19295,-7.423988,-0.1862596,-0.9978051,-0.09023894,1.325396,41.72519,22.45572,1002.019
2.652682304,-1.68485,-61.73771,-8.524432,-0.1807966,-1.001445,-0.09801406,1.325396,41.72519,22.45572,1002.019
2.657692432,-0.3959567,-62.9483,-9.991693,-0.1708843,-1.014905,-0.1008354,1.325396,41.72519,22.45572,1002.019
2.662702560,0.156426,-63.79571,-11.45895,-0.1721929,-1.020131,-0.1077735,1.325396,41.72519,22.45572,1002.019
2.667711735,1.077064,-64.5826,-13.10962,-0.1638226,-1.03231,-0.1038335,1.325396,41.72519,22.45572,1002.019
2.672721386,1.87495,-64.82471,-14.9437,-0.1578733,-1.038463,-0.1083361,1.325396,41.72519,22.45572,1002.017
2.677731514,2.795588,-65.43001,-16.47209,-0.1483271,-1.057703,-0.1147443,1.325396,41.72519,22.45572,1002.017
2.682740688,3.532098,-65.73266,-18.06162,-0.1457855,-1.06142,-0.1211083,1.325396,41.72519,22.45572,1002.017
2.687750816,3.96173,-65.91425,-19.40661,-0.1398428,-1.065065,-0.1283986,2.394612,41.73515,23.38754,1002.017
2.692756653,4.023106,-66.33795,-20.93501,-0.1402099,-1.065295,-0.1394623,2.394612,41.73515,23.38754,1002.017
2.697765827,4.023106,-66.76166,-22.27999,-0.1294029,-1.068823,-0.1486243,2.394612,41.73515,23.38754,1002.017
2.702775955,3.286595,-67.00378,-23.86953,-0.1183764,-1.058846,-0.1505436,2.394612,41.73515,23.38754,1002.017
2.707786083,1.568071,-67.00378,-25.45906,-0.1043447,-1.049096,-0.1615727,2.394612,41.73515,23.38754,1002.017
2.712795258,-0.2118291,-67.00378,-27.10973,-0.09620009,-1.034053,-0.1729364,2.394612,41.73515,23.38754,1002.015
2.717805386,-1.991729,-66.82218,-28.63812,-0.08559756,-1.021414,-0.1843683,2.394612,41.73515,23.38754,1002.015
2.722815037,-4.139884,-66.88271,-30.16652,-0.08050146,-1.006248,-0.182302,2.394612,41.73515,23.38754,1002.015
2.727824211,-6.288039,-67.18536,-31.93946,-0.07674608,-0.9903284,-0.192232,2.394612,41.73515,23.38754,1002.015
2.732834339,-8.436194,-67.30642,-33.59013,-0.08475768,-0.9728919,-0.1911636,2.394612,41.73515,23.38754,1002.015
2.737844467,-10.33885,-67.97224,-35.05738,-0.08399469,-0.9627717,-0.1850054,1.686712,42.03708,23.37944,1002.015
2.742854118,-10.9526,-68.88019,-36.58578,-0.08850837,-0.9515926,-0.1855836,1.686712,42.03708,23.37944,1002.015
2.747863293,-11.56636,-69.60654,-37.93077,-0.08771735,-0.944434,-0.1780963,1.686712,42.03708,23.37944,1002.015
2.752873421,-11.13673,-70.87766,-39.33689,-0.09464403,-0.9332674,-0.1796587,1.686712,42.03708,23.37944,1002.017
2.757883549,-10.76848,-71.7856,-40.49847,-0.1044824,-0.9211444,-0.182173,1.686712,42.03708,23.37944,1002.017
2.762892723,-9.786463,-73.48042,-41.59892,-0.1099557,-0.9109667,-0.1823179,1.686712,42.03708,23.37944,1002.017
2.767902851,-8.49757,-74.69101,-42.21028,-0.1164244,-0.9003613,-0.1805337,1.686712,42.03708,23.37944,1002.017
2.772915840,-7.270053,-76.02266,-42.45482,-0.1256436,-0.8964896,-0.1847977,1.686712,42.03708,23.37944,1002.017
2.777921677,-6.472167,-77.77802,-42.08801,-0.1297803,-0.8840473,-0.1766753,1.686712,42.03708,23.37944,1002.017
2.782931805,-5.367401,-79.59389,-42.33255,-0.1395639,-0.8733073,-0.1826052,1.686712,42.03708,23.37944,1002.017
2.787941933,-4.999146,-81.40977,-41.96573,-0.1455139,-0.8701848,-0.1738934,1.68068,42.03122,23.83672,1002.017
2.792951107,-4.139884,-83.04408,-41.84346,-0.1523403,-0.8607966,-0.18273,1.68068,42.03122,23.83672,1002.016
2.797961235,-3.280622,-84.5573,-41.41551,-0.156786,-0.8656077,-0.1680593,1.68068,42.03122,23.83672,1002.016
2.802970886,-2.850991,-86.1916,-40.86529,-0.1630121,-0.8624964,-0.1795315,1.68068,42.03122,23.83672,1002.016
2.807980061,-2.482736,-87.88643,-40.00939,-0.1770822,-0.8627477,-0.1777514,1.68068,42.03122,23.83672,1002.016
2.812990189,-1.316595,-88.61278,-39.5203,-0.1828666,-0.8683138,-0.1732126,1.68068,42.03122,23.83672,1002.016
2.818000317,-0.08907739,-89.21807,-38.78667,-0.1818016,-0.8776603,-0.1697141,1.68068,42.03122,23.83672,1002.016
2.823009491,1.261192,-89.64178,-37.31941,-0.1798893,-0.8751699,-0.1705624,1.68068,42.03122,23.83672,1002.016
2.828019142,2.795588,-90.06548,-35.97442,-0.1659729,-0.8943231,-0.1778871,1.68068,42.03122,23.83672,1002.016
2.833029270,5.496126,-90.06548,-34.20148,-0.1512697,-0.9043088,-0.1800507,1.68068,42.03122,23.83672,1002.014
2.838039398,8.749046,-90.18655,-33.16217,-0.1600468,-0.8975031,-0.1841988,1.68068,42.03122,23.83672,1002.014
2.843048573,9.976563,-90.24707,-33.22331,-0.1468785,-0.9066956,-0.1796197,1.68068,42.03122,23.83672,1002.014
2.848058701,10.46757,-90.85237,-32.97877,-0.1418571,-0.9112496,-0.1903167,1.68068,42.03122,23.83672,1002.014
2.853068352,11.51096,-91.15501,-32.00059,-0.1304125,-0.9260133,-0.1989392,1.68068,42.03122,23.83672,1002.014
2.858077526,13.90462,-91.76031,-30.96128,-0.1230477,-0.931227,-0.2009903,1.68068,42.03122,23.83672,1002.014
2.863087654,15.80727,-92.66825,-30.34993,-0.1205282,-0.9365115,-0.2030896,1.68068,42.03122,23.83672,1002.014
2.868097782,17.95543,-93.33408,-30.90015,-0.1122722,-0.9363451,-0.2049276,1.68068,42.03122,23.83672,1002.014
2.873106956,18.75331,-94.48413,-31.87832,-0.1119427,-0.9331767,-0.194233,1.68068,42.03122,23.83672,1002.014
2.878117084,18.75331,-94.54466,-32.91763,-0.1029613,-0.9571596,-0.1864118,1.68068,42.03122,23.83672,1002.014
2.883126736,17.15754,-94.84731,-32.73422,-0.09480632,-0.9582452,-0.1767664,1.68068,42.03122,23.83672,1002.014
2.888140678,15.25489,-94.42361,-32.73422,-0.09408519,-0.9707946,-0.1825225,2.371293,42.42524,23.78626,1002.014
2.893142223,13.59774,-93.63672,-32.61195,-0.0890996,-0.9845208,-0.1772318,2.371293,42.42524,23.78626,1002.014
2.898151875,12.37022,-92.9709,-32.73422,-0.07880811,-0.9876257,-0.1839801,2.371293,42.42524,23.78626,1002.014
2.903161049,11.26546,-92.9709,-32.184,-0.09290681,-0.9869359,-0.180723,2.371293,42.42524,23.78626,1002.014
2.908171177,11.08133,-90.85237,-32.85649,-0.09265509,-0.9784015,-0.1698249,2.371293,42.42524,23.78626,1002.014
2.913181305,10.40619,-88.79436,-32.06173,-0.1018367,-0.9678773,-0.186809,2.371293,42.42524,23.78626,1002.018
2.918190956,9.362805,-87.34166,-31.38923,-0.0993404,-0.9701889,-0.1907174,2.371293,42.42524,23.78626,1002.018
2.923200607,7.828409,-87.2206,-30.83901,-0.1102334,-0.9552568,-0.1888103,2.371293,42.42524,23.78626,1002.018
2.928210258,6.662267,-86.01002,-31.81719,-0.1190165,-0.9535136,-0.1854631,2.371293,42.42524,23.78626,1002.018
2.933220386,7.21465,-84.79942,-32.36741,-0.1179836,-0.9568797,-0.187023,2.371293,42.42524,23.78626,1002.018
2.938229561,8.564919,-83.34672,-31.87832,-0.1226646,-0.9621091,-0.1959149,2.06834,42.04473,23.38554,1002.018
2.943239689,10.40619,-81.83348,-30.53333,-0.116422,-0.9560942,-0.1985104,2.06834,42.04473,23.38554,1002.018
2.948250294,10.95858,-80.44131,-29.61629,-0.1232416,-0.948204,-0.2059624,2.06834,42.04473,23.38554,1002.018
2.953258514,10.83583,-79.10966,-28.9438,-0.1271014,-0.9401446,-0.2186656,2.06834,42.04473,23.38554,1002.016
2.958268642,10.59032,-78.08066,-28.69926,-0.1269537,-0.9438283,-0.2279339,2.06834,42.04473,23.38554,1002.016
2.963278770,10.16069,-77.35431,-28.51585,-0.1190466,-0.9478866,-0.2371434,2.06834,42.04473,23.38554,1002.016
2.968287945,9.178678,-76.99113,-28.02676,-0.1142277,-0.947374,-0.2351566,2.06834,42.04473,23.38554,1002.016
2.973298073,7.889785,-76.3253,-27.10973,-0.1191464,-0.9440877,-0.2326753,2.06834,42.04473,23.38554,1002.016
2.978307724,7.153274,-75.65948,-26.25382,-0.1112406,-0.9531968,-0.2348695,2.06834,42.04473,23.38554,1002.016
2.983316898,6.232636,-75.35683,-25.09224,-0.1025306,-0.9505727,-0.2370902,2.06834,42.04473,23.38554,1002.016
2.988327026,5.496126,-74.93313,-23.50271,-0.09756452,-0.9557643,-0.2415655,3.13972,42.44558,23.40649,1002.016
2.993337154,5.680254,-74.2673,-22.09659,-0.09880852,-0.943314,-0.2319741,3.13972,42.44558,23.40649,1002.018
2.998346806,6.355388,-73.17777,-20.62933,-0.07919054,-0.9429659,-0.2548403,3.13972,42.44558,23.40649,1002.018
3.003356457,6.416764,-73.11725,-19.10093,-0.07061645,-0.9371344,-0.2482913,3.13972,42.44558,23.40649,1002.018
3.008366108,6.846395,-73.2383,-18.00049,-0.0536541,-0.9293045,-0.2588854,3.13972,42.44558,23.40649,1002.018
3.013376236,7.889785,-73.17777,-17.45027,-0.03563811,-0.9283244,-0.2682887,3.13972,42.44558,23.40649,1002.018
3.018385410,8.626295,-74.02518,-16.59436,-0.02146543,-0.9303509,-0.2768815,3.13972,42.44558,23.40649,1002.018
3.023395538,9.055926,-75.53842,-16.16641,-0.00407435,-0.9251718,-0.2784429,3.13972,42.44558,23.40649,1002.018
3.028405190,8.871799,-77.05166,-15.61619,0.004145026,-0.9276173,-0.2731731,3.13972,42.44558,23.40649,1002.018
3.033414364,9.178678,-78.38331,-15.24937,0.01236994,-0.9270206,-0.2725925,3.13972,42.44558,23.40649,1002.018
3.038424492,9.915188,-79.23072,-15.7996,0.02312049,-0.936237,-0.2685175,2.744325,43.20209,22.95052,1002.016
3.043434620,9.915188,-79.35178,-15.43278,0.02108822,-0.9294244,-0.268758,2.744325,43.20209,22.95052,1002.016
3.048443794,8.442167,-80.32024,-15.61619,0.02700067,-0.9391993,-0.2647497,2.744325,43.20209,22.95052,1002.016
3.053453922,7.091898,-81.83348,-15.86073,0.03844302,-0.9534637,-0.2738338,2.744325,43.20209,22.95052,1002.016
3.058463573,5.803005,-83.04408,-15.86073,0.03979836,-0.9531735,-0.2646804,2.744325,43.20209,22.95052,1002.016
3.063472748,4.69824,-82.86248,-16.41096,0.03222588,-0.9629509,-0.2689676,2.744325,43.20209,22.95052,1002.016
3.068482876,4.084481,-82.62037,-17.20572,0.03232437,-0.9718007,-0.2664204,2.744325,43.20209,22.95052,1002.016
3.073493004,2.672836,-82.62037,-17.93935,0.02570402,-0.9821094,-0.2683163,2.744325,43.20209,22.95052,1002.016
3.078502655,0.7701846,-82.62037,-18.79525,0.0229583,-0.9984226,-0.2617552,2.744325,43.20209,22.95052,1002.016
3.083512306,-0.702836,-82.31772,-19.8957,0.01087519,-1.004081,-0.2572791,3.106154,43.96804,22.964,1002.016
3.088521957,-2.42136,-81.16766,-21.66864,-0.001315695,-1.027519,-0.2650124,3.106154,43.96804,22.964,1002.016
3.093527794,-4.20126,-80.44131,-21.97432,-0.01083381,-1.038857,-0.2664942,3.106154,43.96804,22.964,1002.016
3.098537445,-7.699684,-79.47284,-21.66864,-0.01954147,-1.04198,-0.2638119,3.106154,43.96804,22.964,1002.016
3.103547096,-12.36425,-77.29378,-21.42409,-0.03889791,-1.041196,-0.2678082,3.106154,43.96804,22.964,1002.016
3.108557224,-17.15157,-75.35683,-21.72977,-0.0588891,-1.04568,-0.2969968,3.106154,43.96804,22.964,1002.016
3.113566399,-21.93888,-74.2673,-22.15772,-0.06656338,-1.040558,-0.3117697,3.106154,43.96804,22.964,1002.016
3.118576527,-26.66483,-74.08572,-22.58567,-0.0817816,-1.046155,-0.3323068,3.106154,43.96804,22.964,1002.016
3.123586178,-30.59288,-74.56995,-22.89135,-0.09041731,-1.049106,-0.3368247,3.106154,43.96804,22.964,1002.016
3.128595829,-32.92516,-74.8726,-22.64681,-0.1006025,-1.042717,-0.344846,3.106154,43.96804,22.964,1002.016
3.133605480,-34.64369,-74.8726,-22.58567,-0.1093587,-1.047976,-0.3345574,3.873279,43.59834,23.42976,1002.016
3.138615608,-36.48496,-74.93313,-22.52454,-0.1132676,-1.045082,-0.3354452,3.873279,43.59834,23.42976,1002.016
3.143624783,-38.26486,-75.05418,-22.27999,-0.116756,-1.038802,-0.3347585,3.873279,43.59834,23.42976,1002.016
3.148634911,-39.67651,-74.69101,-21.6075,-0.1147782,-1.043222,-0.3325056,3.873279,43.59834,23.42976,1002.016
3.153644562,-40.78127,-73.54095,-20.93501,-0.1127781,-1.044054,-0.3373234,3.873279,43.59834,23.42976,1002.016
3.158654213,-41.45641,-72.02772,-20.07911,-0.1054573,-1.042811,-0.3439343,3.873279,43.59834,23.42976,1002.016
3.163663864,-42.4998,-70.81712,-19.52888,-0.09949944,-1.04339,-0.3568738,3.873279,43.59834,23.42976,1002.016
3.168673992,-42.2543,-69.60654,-19.40661,-0.09560061,-1.038736,-0.3653091,3.873279,43.59834,23.42976,1002.016
3.173683643,-41.94741,-68.57754,-20.01797,-0.0849309,-1.035527,-0.3703721,3.873279,43.59834,23.42976,1002.016
3.178693295,-41.45641,-67.60907,-20.7516,-0.07751849,-1.032045,-0.3889095,3.873279,43.59834,23.42976,1002.016
3.183702946,-41.39503,-66.88271,-22.09659,-0.0726923,-1.021419,-0.4014333,3.865944,43.20243,24.73257,1002.016
3.188713074,-41.70191,-66.94324,-23.62498,-0.06836551,-1.012855,-0.4097159,3.865944,43.20243,24.73257,1002.016
3.193722248,-42.62255,-66.45901,-25.33679,-0.06868136,-1.019019,-0.4176413,3.865944,43.20243,24.73257,1002.016
3.198732376,-43.54319,-65.55106,-26.62064,-0.0668688,-1.01273,-0.4140216,3.865944,43.20243,24.73257,1002.016
3.203742027,-44.21832,-64.15889,-27.41541,-0.06185824,-1.022358,-0.4167432,3.865944,43.20243,24.73257,1002.016
3.208751679,-44.5252,-62.58512,-27.84336,-0.0633219,-1.014832,-0.4260806,3.865944,43.20243,24.73257,1002.016
3.213761330,-45.07758,-60.82977,-28.63812,-0.06467824,-1.019163,-0.4296217,3.865944,43.20243,24.73257,1002.016
3.218771458,-45.13896,-59.92183,-29.61629,-0.05688863,-1.013407,-0.4408615,3.865944,43.20243,24.73257,1002.016
3.223780632,-45.50721,-59.256,-30.41106,-0.06392056,-1.019509,-0.4555748,3.865944,43.20243,24.73257,1002.016
3.228790760,-45.13896,-59.31654,-31.93946,-0.06076276,-1.023408,-0.4744329,3.865944,43.20243,24.73257,1002.016
3.233800411,-44.64795,-59.74024,-33.77353,-0.05514115,-1.04484,-0.4732733,4.624873,42.43599,26.56647,1002.016
3.238809586,-44.15694,-61.37453,-35.60761,-0.05376503,-1.07565,-0.4705884,4.624873,42.43599,26.56647,1002.016
3.243819714,-44.58658,-64.21942,-38.35872,-0.05342002,-1.115205,-0.4499869,4.624873,42.43599,26.56647,1002.016
3.248829842,-46.12097,-67.36695,-40.07052,-0.04293319,-1.162263,-0.4156409,4.624873,42.43599,26.56647,1002.016
3.253839493,-47.65537,-70.39342,-40.07052,-0.02892879,-1.195486,-0.3653595,4.624873,42.43599,26.56647,1002.016
3.258849144,-49.92628,-72.26984,-38.29758,-0.00341263,-1.225285,-0.3081125,4.624873,42.43599,26.56647,1002.016
3.263858795,-52.07443,-73.35936,-35.66874,0.005548058,-1.227758,-0.2807338,4.624873,42.43599,26.56647,1002.016
3.268868923,-53.85433,-74.02518,-32.30627,0.02451063,-1.221917,-0.2476591,4.624873,42.43599,26.56647,1002.016
3.273878098,-55.51148,-74.69101,-29.00494,0.04066961,-1.214355,-0.2270384,4.624873,42.43599,26.56647,1002.016
3.278888226,-57.29138,-76.08319,-26.68178,0.04850521,-1.20813,-0.1964564,4.624873,42.43599,26.56647,1002.02
3.283897877,-58.64165,-76.99113,-25.33679,0.0669257,-1.202434,-0.1576264,4.937778,41.72464,28.32856,1002.02
3.288907528,-59.07128,-76.9306,-24.48089,0.09054562,-1.200002,-0.1015737,4.937778,41.72464,28.32856,1002.02
3.293913364,-58.5189,-75.05418,-23.80839,0.1088023,-1.197727,-0.04221386,4.937778,41.72464,28.32856,1002.02
3.298923016,-57.04588,-71.24083,-23.62498,0.1360863,-1.190194,0.02752142,4.937778,41.72464,28.32856,1002.02
3.303932667,-54.89772,-65.67213,-24.23634,0.1521301,-1.164883,0.08197078,4.937778,41.72464,28.32856,1002.02
3.308942318,-51.33792,-58.95336,-25.39792,0.1851269,-1.130754,0.125383,4.937778,41.72464,28.32856,1002.02
3.313952446,-47.47124,-52.96095,-27.65995,0.1833327,-1.102821,0.1201823,4.937778,41.72464,28.32856,1002.02
3.318961620,-41.2109,-46.84747,-29.24948,0.1881573,-1.061048,0.1122067,4.937778,41.72464,28.32856,1002.02
3.323971748,-34.39819,-40.85506,-30.96128,0.1902851,-1.021842,0.08729069,4.937778,41.72464,28.32856,1002.02
3.328981400,-28.56748,-36.13376,-32.06173,0.2024176,-0.9908254,0.04341766,4.937778,41.72464,28.32856,1002.02
3.333991528,-22.30714,-32.32041,-33.40672,0.211541,-0.9735791,-0.01878601,5.315076,40.95055,30.15636,1002.02
3.339000702,-17.27432,-30.92823,-35.4242,0.2179174,-0.968106,-0.08050239,5.315076,40.95055,30.15636,1002.02
3.344010830,-13.22351,-32.07829,-37.19714,0.226772,-0.9801317,-0.1236411,5.315076,40.95055,30.15636,1002.02
3.349020481,-11.01398,-35.04424,-38.60326,0.2129132,-0.9968919,-0.1666931,5.315076,40.95055,30.15636,1002.02
3.354030132,-10.82985,-38.37335,-39.45916,0.1989723,-1.025459,-0.1856895,5.315076,40.95055,30.15636,1002.02
3.359039784,-12.36425,-42.18671,-39.33689,0.1737371,-1.042436,-0.2062732,5.315076,40.95055,30.15636,1002.018
3.364049912,-15.61717,-45.879,-38.23645,0.1471655,-1.070258,-0.2234381,5.315076,40.95055,30.15636,1002.018
3.369059086,-20.22036,-49.995,-36.34124,0.1243192,-1.08728,-0.2406375,5.315076,40.95055,30.15636,1002.018
3.374069214,-24.7008,-53.98994,-34.07921,0.105213,-1.102047,-0.2476255,5.315076,40.95055,30.15636,1002.018
3.379078865,-29.18124,-57.31907,-31.93946,0.09649075,-1.106215,-0.2421001,5.315076,40.95055,30.15636,1002.018
3.384092808,-32.49553,-59.67971,-30.10538,0.08625405,-1.104494,-0.2387674,4.935151,40.167,31.51471,1002.018
3.389098168,-35.93258,-62.5246,-28.27131,0.08171158,-1.093384,-0.2364655,4.935151,40.167,31.51471,1002.018
3.394108296,-38.81725,-64.88525,-26.80405,0.0738202,-1.093831,-0.2226222,4.935151,40.167,31.51471,1002.018
3.399117470,-39.98339,-65.97477,-25.7036,0.07691158,-1.076834,-0.2166611,4.935151,40.167,31.51471,1002.018
3.404127598,-40.65852,-67.60907,-25.03111,0.07577512,-1.06564,-0.2157654,4.935151,40.167,31.51471,1002.018
3.409137249,-39.24688,-69.00124,-24.11407,0.0683445,-1.055537,-0.2140094,4.935151,40.167,31.51471,1002.018
3.414147377,-35.99396,-70.21183,-23.80839,0.05857639,-1.050313,-0.2139026,4.935151,40.167,31.51471,1002.018
3.419156551,-31.32939,-70.93819,-23.80839,0.04774732,-1.038761,-0.213565,4.935151,40.167,31.51471,1002.018
3.424166679,-25.74419,-71.42242,-23.38044,0.04449278,-1.036967,-0.2293839,4.935151,40.167,31.51471,1002.018
3.444205761,-10.27747,-69.12231,-21.97432,-0.006067948,-1.02989,-0.2709133,4.942885,39.39697,32.42187,1002.017
3.449214935,-9.970591,-67.0643,-21.91318,-0.01889212,-1.03451,-0.2899492,4.942885,39.39697,32.42187,1002.017
3.454225063,-10.9526,-65.18789,-21.48523,-0.03260633,-1.021434,-0.2939052,4.942885,39.39697,32.42187,1002.017
3.459234715,-13.34626,-61.9193,-20.56819,-0.04537727,-1.005881,-0.2987193,4.942885,39.39697,32.42187,1002.017
3.464244366,-16.96744,-59.07442,-19.52888,-0.06334032,-0.9865425,-0.3221776,4.942885,39.39697,32.42187,1002.017
3.469254017,-20.64999,-55.98742,-18.79525,-0.0727848,-0.96302,-0.3314621,4.942885,39.39697,32.42187,1002.017
3.474264145,-23.78016,-53.02148,-17.75594,-0.07787065,-0.9379243,-0.3425677,4.942885,39.39697,32.42187,1002.017
3.479273319,-26.4807,-50.72136,-16.90004,-0.08838746,-0.9055777,-0.3539292,4.942885,39.39697,32.42187,1002.017
3.484283447,-29.24261,-48.72388,-15.55505,-0.0960759,-0.8814543,-0.3463567,6.115821,38.34568,32.42967,1002.017
3.489293099,-31.69765,-46.60535,-14.14893,-0.09200668,-0.8578603,-0.350226,6.115821,38.34568,32.42967,1002.017
3.494299412,-32.00452,-45.4553,-13.4153,-0.08498313,-0.8371392,-0.3546571,6.115821,38.34568,32.42967,1002.017
3.499308586,-32.0659,-44.4263,-12.98735,-0.07515649,-0.8201588,-0.3438282,6.115821,38.34568,32.42967,1002.017
3.504318237,-31.32939,-43.76047,-12.31485,-0.05898341,-0.8039815,-0.3363337,6.115821,38.34568,32.42967,1002.017
3.509328365,-29.48812,-42.91306,-11.39782,-0.0408099,-0.7876261,-0.33506,6.115821,38.34568,32.42967,1002.017
3.514337540,-26.78758,-42.12618,-10.78646,-0.03052727,-0.7696975,-0.3227493,6.115821,38.34568,32.42967,1002.017
3.519347668,-24.7008,-41.763,-9.991693,-0.02259403,-0.7465808,-0.3246782,6.115821,38.34568,32.42967,1002.019
3.524357796,-23.47328,-41.58141,-8.70784,-0.02105669,-0.7288373,-0.3100543,6.115821,38.34568,32.42967,1002.019
3.529366970,-21.87751,-41.15771,-7.97421,-0.009147573,-0.7094627,-0.3164127,6.115821,38.34568,32.42967,1002.019
3.534376621,-20.28174,-41.39983,-6.506951,-0.003652798,-0.692477,-0.3085074,6.476348,38.72159,33.28869,1002.019
3.539386749,-19.05422,-41.70247,-4.856283,-0.01048605,-0.6731559,-0.2833311,6.476348,38.72159,33.28869,1002.019
3.544395924,-18.56321,-40.91559,-3.450159,-0.01549232,-0.6655368,-0.2782834,6.476348,38.72159,33.28869,1002.019
3.549406052,-15.98543,-40.12871,-2.961072,-0.01652094,-0.6641797,-0.2743974,6.476348,38.72159,33.28869,1002.019
3.554415703,-11.75049,-39.76553,-2.105171,0.002186891,-0.6778385,-0.2838706,6.476348,38.72159,33.28869,1002.019
3.559425831,-6.042536,-38.85759,-1.065861,0.01075669,-0.6699982,-0.2796476,6.476348,38.72159,33.28869,1002.017
3.564435005,-1.316595,-38.13124,-0.148824,0.003496005,-0.6705921,-0.2797385,6.476348,38.72159,33.28869,1002.017
3.569445133,3.102467,-37.16277,0.5236702,-0.01140583,-0.677595,-0.2820671,6.476348,38.72159,33.28869,1002.017
3.574455261,7.337402,-35.589,1.196164,-0.01473638,-0.6729547,-0.294415,6.476348,38.72159,33.28869,1002.017
3.579464435,11.20408,-34.25735,1.501843,-0.0131235,-0.6781037,-0.3027642,6.476348,38.72159,33.28869,1002.017
3.584474087,13.47499,-33.04676,2.480017,-0.003110473,-0.6913216,-0.3156658,7.565362,37.97325,34.21311,1002.017
3.589484215,14.57975,-32.07829,3.335918,-0.005489105,-0.6978137,-0.3111302,7.565362,37.97325,34.21311,1002.017
3.594493389,14.457,-30.20188,3.763869,-0.000869893,-0.7087394,-0.3211124,7.565362,37.97325,34.21311,1002.017
3.599503517,12.73848,-28.99129,4.069548,0.008085739,-0.7206692,-0.327248,7.565362,37.97325,34.21311,1002.017
3.604513168,11.26546,-27.47806,4.803178,0.01603041,-0.7276658,-0.3360884,7.565362,37.97325,34.21311,1002.017
3.609522819,9.669684,-25.96482,5.047722,0.02244503,-0.7338578,-0.3386661,7.565362,37.97325,34.21311,1002.017
3.614532471,8.871799,-24.93582,5.65908,0.02505828,-0.7480035,-0.3377382,7.565362,37.97325,34.21311,1002.017
3.619542599,7.889785,-23.96735,6.270438,0.02223602,-0.7538998,-0.337989,7.565362,37.97325,34.21311,1002.017
3.624551773,8.380792,-22.27252,7.065204,-0.0001906396,-0.7439584,-0.3387828,7.565362,37.97325,34.21311,1002.017
3.629561901,9.608309,-20.63823,8.471329,0.03589092,-0.7826207,-0.3538487,7.565362,37.97325,34.21311,1002.017
3.634571552,11.01995,-21.54617,10.67222,0.06605694,-0.7864223,-0.3599561,8.330783,38.37944,33.31444,1002.017
3.639581680,12.55435,-21.96988,11.03903,0.05583083,-0.7806366,-0.3631957,8.330783,38.37944,33.31444,1002.017
3.644590855,14.82526,-21.6067,10.54995,0.0588879,-0.7847771,-0.3719734,8.330783,38.37944,33.31444,1002.017
3.649600983,16.60516,-21.78829,9.938589,0.05612271,-0.7925556,-0.3751783,8.330783,38.37944,33.31444,1002.017
3.654611587,16.85066,-21.78829,9.143823,0.05535646,-0.806217,-0.3761858,8.330783,38.37944,33.31444,1002.017
3.659620285,16.66653,-22.09094,8.838143,0.05954292,-0.8210638,-0.3858407,8.330783,38.37944,33.31444,1002.017
3.664629936,15.9914,-22.39358,8.89928,0.06467572,-0.8404942,-0.3870121,8.330783,38.37944,33.31444,1002.017
3.669640064,14.64113,-22.27252,9.266094,0.06875992,-0.8520529,-0.3912574,8.330783,38.37944,33.31444,1002.017
3.674649239,13.59774,-21.96988,9.694045,0.06466871,-0.8676231,-0.3962127,8.330783,38.37944,33.31444,1002.017
3.679659367,13.35224,-20.5777,11.03903,0.06814897,-0.8774566,-0.3912686,8.332086,38.76948,32.46891,1002.016
3.684669018,13.65912,-18.76182,12.26175,0.06294376,-0.8782452,-0.402399,8.332086,38.76948,32.46891,1002.016
3.689678669,15.37764,-16.40117,13.48447,0.06728522,-0.8782276,-0.4004355,8.332086,38.76948,32.46891,1002.016
3.694684505,17.40304,-14.58529,14.58491,0.06213149,-0.8743494,-0.42292,8.332086,38.76948,32.46891,1002.016
3.697189331,18.69193,-14.34317,14.70718,0.05336118,-0.8690418,-0.4256836,8.332086,38.76948,32.46891,1002.016
3.702198982,21.51522,-13.55629,14.34037,0.04326763,-0.8700049,-0.4325421,8.332086,38.76948,32.46891,1002.016
3.707209110,23.54063,-13.3747,13.11765,0.02689479,-0.8700037,-0.4427866,8.332086,38.76948,32.46891,1002.016
3.712218285,24.46127,-13.61682,12.01721,0.02241578,-0.891911,-0.4484671,8.332086,38.76948,32.46891,1002.016
3.717228413,24.33851,-12.95099,12.32289,0.01355386,-0.9068683,-0.4616125,8.332086,38.76948,32.46891,1002.016
3.722238064,24.33851,-11.86146,13.5456,0.01087832,-0.9204891,-0.4655193,8.332086,38.76948,32.46891,1002.014
3.727248192,22.43586,-10.7114,14.4015,-0.001046991,-0.9277874,-0.4740776,8.332086,38.76948,32.46891,1002.014
3.732257366,18.0168,-10.04558,14.70718,-0.009047421,-0.9414745,-0.4785176,10.17878,39.19735,31.58749,1002.014
3.737267494,12.92261,-9.621875,15.01286,-0.01376151,-0.9543552,-0.4737664,10.17878,39.19735,31.58749,1002.014
3.742277145,7.521529,-9.016581,15.86876,-0.02227901,-0.9736803,-0.4673742,10.17878,39.19735,31.58749,1002.014
3.747286797,1.997702,-8.834992,16.90807,-0.02807448,-0.9853303,-0.4534569,10.17878,39.19735,31.58749,1002.014
3.752296448,-3.280622,-8.592875,17.33602,-0.03639381,-0.9896873,-0.4397663,10.17878,39.19735,31.58749,1002.014
3.757306576,-8.252067,-8.411286,18.4976,-0.03057605,-0.9946417,-0.4331731,10.17878,39.19735,31.58749,1002.014
3.762315750,-11.62774,-8.895522,19.47578,-0.03775615,-1.008672,-0.4227228,10.17878,39.19735,31.58749,1002.016
3.767325878,-14.2669,-9.137639,20.51509,-0.04045925,-0.9992846,-0.4084567,10.17878,39.19735,31.58749,1002.016
3.772335529,-15.18754,-9.500816,21.61553,-0.03523687,-0.9969406,-0.4011108,10.17878,39.19735,31.58749,1002.016
3.777345180,-15.43304,-10.2877,22.28803,-0.0339141,-0.9926902,-0.3942097,10.17878,39.19735,31.58749,1002.016
3.782354832,-14.88066,-10.89299,23.14393,-0.02573389,-0.9886673,-0.3939797,10.92992,39.91364,31.14918,1002.016
3.787364960,-14.20553,-12.16411,23.75529,-0.02283791,-0.985118,-0.3976615,10.92992,39.91364,31.14918,1002.016
3.792374134,-12.91663,-13.19311,23.87756,-0.01124032,-0.9835077,-0.3965301,10.92992,39.91364,31.14918,1002.016
3.797384262,-10.9526,-14.34317,23.87756,-0.000799085,-0.9918057,-0.4106821,10.92992,39.91364,31.14918,1002.016
3.802393913,-8.743073,-15.67482,24.1221,0.01052686,-1.001806,-0.4143195,10.92992,39.91364,31.14918,1002.014
3.807404041,-5.919784,-16.52223,24.55005,0.01186556,-1.019077,-0.4264959,10.92992,39.91364,31.14918,1002.014
3.812413216,-2.789615,-17.79335,25.10028,0.01894069,-1.030897,-0.4384111,10.92992,39.91364,31.14918,1002.014
3.817423344,0.5246812,-18.5197,26.01731,0.01815496,-1.036024,-0.4491845,10.92992,39.91364,31.14918,1002.014
3.822432995,4.023106,-18.82235,26.62867,0.01012166,-1.03717,-0.4675627,10.92992,39.91364,31.14918,1002.014
3.827442646,7.091898,-18.76182,27.42344,-0.001742326,-1.038768,-0.4898381,10.92992,39.91364,31.14918,1002.014
3.832452297,9.669684,-18.39864,27.85139,-0.01939326,-1.036853,-0.5197223,12.46252,39.23742,32.08132,1002.014
3.837462425,11.44958,-17.61176,28.27934,-0.03632338,-1.02088,-0.5447404,12.46252,39.23742,32.08132,1002.014
3.842476368,10.95858,-16.58276,28.52388,-0.0537327,-1.012473,-0.5599604,12.46252,39.23742,32.08132,1002.013
3.847481728,9.546933,-15.13005,28.8907,-0.06669655,-1.000266,-0.588448,12.46252,39.23742,32.08132,1002.013
3.852491379,6.907771,-13.97999,29.01297,-0.08447827,-0.9941215,-0.6114455,12.46252,39.23742,32.08132,1002.013
3.857501030,3.409347,-12.82994,29.13524,-0.08985295,-0.9821923,-0.6235353,12.46252,39.23742,32.08132,1002.013
3.862510681,-0.5800843,-11.74041,28.76842,-0.1079591,-0.9697596,-0.6237131,12.46252,39.23742,32.08132,1002.013
3.867520809,-5.551529,-10.52982,28.27934,-0.1210762,-0.9665014,-0.6251541,12.46252,39.23742,32.08132,1002.013
3.872530460,-10.89123,-9.379757,27.60684,-0.1427408,-0.9780974,-0.6233965,12.46252,39.23742,32.08132,1002.013
3.877540112,-15.55579,-8.04811,27.30116,-0.1645367,-0.9874845,-0.611946,12.46252,39.23742,32.08132,1002.013
3.882549763,-20.46586,-6.776992,27.05662,-0.1888167,-1.021643,-0.6077079,13.92321,39.58858,31.65047,1002.011
3.887559891,-24.76217,-6.232227,27.85139,-0.2003372,-1.068858,-0.6009634,13.92321,39.58858,31.65047,1002.011
3.892565250,-29.61087,-6.716462,29.37978,-0.2060858,-1.11306,-0.59405,13.92321,39.58858,31.65047,1002.011
3.897574902,-33.90718,-7.805992,32.00863,-0.2020311,-1.146901,-0.5650277,13.92321,39.58858,31.65047,1002.011
3.902585030,-38.63312,-8.229698,34.6986,-0.1900005,-1.159541,-0.5394483,13.92321,39.58858,31.65047,1002.011
3.907594204,-42.9908,-7.563874,37.69426,-0.1841797,-1.143938,-0.5142945,13.92321,39.58858,31.65047,1002.011
3.912604332,-47.59399,-6.655933,39.83401,-0.1629656,-1.112223,-0.4999149,13.92321,39.58858,31.65047,1002.011
3.917613983,-51.70618,-6.232227,40.3231,-0.1547139,-1.082431,-0.4948599,13.92321,39.58858,31.65047,1002.011
3.922623634,-54.89772,-5.990109,40.07855,-0.1467784,-1.059813,-0.4963274,13.92321,39.58858,31.65047,1002.013
3.927633286,-57.10725,-6.292756,38.91697,-0.1386969,-1.057542,-0.4841525,13.92321,39.58858,31.65047,1002.013
3.932647228,-57.41413,-6.95858,37.2663,-0.1349174,-1.070337,-0.4572151,14.70849,38.52377,32.10946,1002.013
3.937652588,-56.80037,-7.503345,35.30996,-0.1314197,-1.096787,-0.4312804,14.70849,38.52377,32.10946,1002.013
3.942662716,-54.9591,-8.229698,33.47588,-0.124837,-1.122914,-0.3759938,14.70849,38.52377,32.10946,1002.013
3.947672367,-52.56544,-7.684933,32.13089,-0.1241075,-1.141647,-0.3272081,14.70849,38.52377,32.10946,1002.013
3.952682495,-49.74215,-6.413815,30.72477,-0.1271173,-1.141578,-0.2705347,14.70849,38.52377,32.10946,1002.013
3.957691669,-46.79611,-4.476873,28.34047,-0.1364688,-1.131104,-0.2240961,14.70849,38.52377,32.10946,1002.013
3.962701797,-43.78869,-3.024167,25.89504,-0.1378171,-1.113856,-0.2109597,14.70849,38.52377,32.10946,1002.012
3.967711449,-40.53577,-1.995167,23.57188,-0.1505356,-1.081161,-0.1973425,14.70849,38.52377,32.10946,1002.012
3.972721100,-36.42359,-1.450402,20.63736,-0.1815331,-1.055483,-0.1875278,14.70849,38.52377,32.10946,1002.012
3.977730751,-30.34738,-1.208284,16.84694,-0.1991014,-1.050488,-0.182698,14.70849,38.52377,32.10946,1002.012
3.982740879,-23.47328,-1.208284,13.23992,-0.2216184,-1.047325,-0.1654914,16.94933,37.0924,33.89461,1002.012
3.987750053,-16.47643,-1.934637,10.48881,-0.2418762,-1.053964,-0.1659345,16.94933,37.0924,33.89461,1002.012
3.992760181,-9.111329,-1.813578,8.287921,-0.2596672,-1.066014,-0.1631968,16.94933,37.0924,33.89461,1002.012
3.997769833,-2.789615,-1.934637,6.698389,-0.2752677,-1.084497,-0.1760592,16.94933,37.0924,33.89461,1002.012
4.002779484,1.997702,-2.479402,6.025895,-0.2915902,-1.08488,-0.1906423,16.94933,37.0924,33.89461,1002.012
4.007789135,4.69824,-3.084697,5.65908,-0.2957757,-1.084018,-0.2089079,16.94933,37.0924,33.89461,1002.012
4.012799263,6.355388,-3.084697,5.536808,-0.2863962,-1.079429,-0.2317091,16.94933,37.0924,33.89461,1002.012
4.017809391,6.17126,-3.447873,5.108858,-0.2596044,-1.071123,-0.2561271,16.94933,37.0924,33.89461,1002.012
4.022818565,3.163843,-3.447873,4.742043,-0.2383271,-1.054253,-0.2745053,16.94933,37.0924,33.89461,1002.012
4.027828217,-0.4573326,-3.508403,4.069548,-0.2212408,-1.039563,-0.3064598,17.36066,35.9626,33.88962,1002.012
4.032838345,-3.096495,-3.81105,3.091375,-0.2106394,-1.021374,-0.3253686,17.36066,35.9626,33.88962,1002.012
4.037847519,-4.20126,-4.900579,1.807523,-0.2104491,-1.007792,-0.3623292,17.36066,35.9626,33.88962,1002.012
4.042857647,-4.508139,-6.171698,0.5236702,-0.1938157,-1.010701,-0.3733349,17.36066,35.9626,33.88962,1002.01
4.047867298,-3.894381,-7.200698,-0.8213181,-0.1886501,-1.005465,-0.3644381,17.36066,35.9626,33.88962,1002.01
4.052876949,-3.587502,-7.382286,-1.921763,-0.1618479,-1.013288,-0.3678471,17.36066,35.9626,33.88962,1002.01
4.057886601,-2.482736,-7.382286,-2.594257,-0.1409695,-1.01843,-0.3644828,17.36066,35.9626,33.88962,1002.01
4.062896729,-1.132467,-6.898051,-3.755838,-0.1239841,-1.024174,-0.3587756,17.36066,35.9626,33.88962,1002.01
4.067905903,-0.2118291,-5.86905,-5.34537,-0.1001029,-1.030054,-0.3635796,17.36066,35.9626,33.88962,1002.01
4.072916031,0.3405536,-4.961109,-7.668531,-0.07700495,-1.022523,-0.3577904,17.36066,35.9626,33.88962,1002.01
4.077925682,0.9543122,-4.174226,-9.808285,-0.05923995,-1.009021,-0.3599927,17.35462,35.95673,34.3469,1002.01
4.082939148,0.9543122,-2.600461,-12.43713,-0.05036898,-0.9864703,-0.3580903,17.35462,35.95673,34.3469,1002.008
4.087944984,0.2791778,-0.8451076,-14.45461,-0.04311418,-0.9527208,-0.3557772,17.35462,35.95673,34.3469,1002.008
4.092951298,-0.5800843,1.455011,-16.71663,-0.04548283,-0.9199619,-0.3588778,17.35462,35.95673,34.3469,1002.008
4.097963810,-0.9483395,3.6946,-18.42844,-0.04265384,-0.8783558,-0.3611124,17.35462,35.95673,34.3469,1002.008
4.102970123,-1.623474,5.328894,-20.07911,-0.04657325,-0.8413084,-0.3607009,17.35462,35.95673,34.3469,1002.008
4.107980251,-2.359984,7.084248,-21.97432,-0.04894767,-0.8126017,-0.3577092,17.35462,35.95673,34.3469,1002.008
4.112990379,-2.605488,7.992189,-23.80839,-0.05903724,-0.788967,-0.3516195,17.35462,35.95673,34.3469,1002.008
4.117999554,-2.237232,8.113248,-25.7036,-0.07538587,-0.7698722,-0.3433589,17.35462,35.95673,34.3469,1002.008
4.123009205,-2.237232,9.02119,-27.10973,-0.0821035,-0.7482544,-0.3325092,17.35462,35.95673,34.3469,1002.012
4.128019333,-3.280622,9.505424,-28.57699,-0.09456868,-0.7285807,-0.3256315,17.66878,36.34813,33.89839,1002.012
4.133028507,-3.526126,10.17125,-29.61629,-0.1080418,-0.7110335,-0.3121172,17.66878,36.34813,33.89839,1002.012
4.138038635,-4.93777,10.29231,-30.34993,-0.1165467,-0.6905966,-0.3143027,17.66878,36.34813,33.89839,1002.012
4.143048763,-5.858408,10.35284,-30.83901,-0.129026,-0.6699473,-0.3073881,17.66878,36.34813,33.89839,1002.012
4.148057938,-7.147301,9.808072,-31.20583,-0.1360287,-0.6559342,-0.3054794,17.66878,36.34813,33.89839,1002.012
4.153067589,-7.638308,9.323836,-31.38923,-0.1513061,-0.6401134,-0.3026187,17.66878,36.34813,33.89839,1002.012
4.158077717,-7.576932,8.658012,-31.63378,-0.1500432,-0.6259109,-0.3035081,17.66878,36.34813,33.89839,1002.012
4.163087845,-7.208677,7.87113,-31.45037,-0.1551724,-0.61152,-0.2958013,17.66878,36.34813,33.89839,1002.012
4.168097019,-6.288039,6.418424,-31.26696,-0.1515,-0.6018568,-0.2891527,17.66878,36.34813,33.89839,1002.012
4.173107147,-4.93777,5.510482,-31.57264,-0.1559211,-0.5939888,-0.2941805,17.66878,36.34813,33.89839,1002.012
4.178116798,-3.035119,4.299894,-31.26696,-0.1564223,-0.5935311,-0.2932068,16.5974,35.94729,33.87743,1002.012
4.183125973,-0.3959567,2.241893,-30.53333,-0.1581485,-0.5996131,-0.3054669,16.5974,35.94729,33.87743,1002.012
4.188139916,1.445319,0.5470693,-29.7997,-0.1654687,-0.5988357,-0.3016622,16.5974,35.94729,33.87743,1002.012
4.193146229,3.409347,-1.268814,-29.06607,-0.1671351,-0.6148699,-0.3061318,16.5974,35.94729,33.87743,1002.012
4.198155403,4.943743,-2.539932,-28.33244,-0.1708098,-0.6240337,-0.313242,16.5974,35.94729,33.87743,1002.012
4.203165054,5.74163,-3.932108,-27.59881,-0.170478,-0.6393905,-0.3243941,16.5974,35.94729,33.87743,1002.012
4.208175182,6.048509,-4.84005,-26.5595,-0.1686989,-0.6607985,-0.3266332,16.5974,35.94729,33.87743,1002.012
4.213184357,5.557502,-5.808521,-25.09224,-0.1678513,-0.6755682,-0.3416021,16.5974,35.94729,33.87743,1002.012
4.218194485,5.189247,-6.95858,-23.44158,-0.1724962,-0.6897972,-0.3417066,16.5974,35.94729,33.87743,1002.012
4.223204613,4.207233,-7.805992,-21.85205,-0.1818755,-0.7018117,-0.3557059,16.5974,35.94729,33.87743,1002.012
4.228214264,3.593474,-8.713933,-20.38478,-0.1810745,-0.7212367,-0.3598008,14.71713,37.04188,34.31636,1002.012
4.233223438,2.61146,-9.500816,-18.97866,-0.1843778,-0.7225884,-0.3666103,14.71713,37.04188,34.31636,1002.012
4.238233566,1.997702,-10.40876,-18.00049,-0.1836499,-0.7366359,-0.3709819,14.71713,37.04188,34.31636,1002.012
4.243243694,1.445319,-10.89299,-16.96118,-0.1815148,-0.7447161,-0.3789572,14.71713,37.04188,34.31636,1002.012
4.248252869,1.506695,-11.74041,-15.73846,-0.1866029,-0.7563288,-0.3866543,14.71713,37.04188,34.31636,1002.012
4.253262520,2.120454,-12.46676,-14.88256,-0.1830423,-0.7614264,-0.3959443,14.71713,37.04188,34.31636,1002.012
4.258272648,2.91834,-13.31417,-14.33234,-0.1876797,-0.7741228,-0.3988734,14.71713,37.04188,34.31636,1002.012
4.263281822,4.084481,-13.79841,-13.72098,-0.1873519,-0.7864605,-0.4137547,14.71713,37.04188,34.31636,1002.012
4.268291950,5.803005,-14.10105,-13.23189,-0.1886307,-0.7971676,-0.416096,14.71713,37.04188,34.31636,1002.012
4.273302078,6.785019,-14.34317,-12.74281,-0.1902901,-0.8040985,-0.4336734,14.71713,37.04188,34.31636,1002.012
4.278311253,7.767033,-14.4037,-12.62053,-0.1881215,-0.8120982,-0.4450087,15.02088,37.35836,34.78179,1002.012
4.283320904,8.503543,-14.22211,-12.74281,-0.187444,-0.8171807,-0.4567277,15.02088,37.35836,34.78179,1002.01
4.288331032,9.485557,-13.61682,-12.92621,-0.1892051,-0.8283943,-0.4586124,15.02088,37.35836,34.78179,1002.01
4.293336392,10.16069,-12.64835,-12.98735,-0.189805,-0.8381227,-0.4810911,15.02088,37.35836,34.78179,1002.01
4.298346520,10.59032,-12.10358,-13.29303,-0.1880639,-0.8480116,-0.4953854,15.02088,37.35836,34.78179,1002.01
4.303356171,11.20408,-11.3167,-13.96552,-0.1928406,-0.8524613,-0.4960802,15.02088,37.35836,34.78179,1002.01
4.308366299,11.26546,-10.52982,-14.45461,-0.1897017,-0.8649868,-0.5013322,15.02088,37.35836,34.78179,1002.01
4.313375473,11.26546,-9.621875,-15.24937,-0.1909866,-0.8711653,-0.5092673,15.02088,37.35836,34.78179,1002.01
4.318385601,10.40619,-8.713933,-16.10528,-0.1889197,-0.8834476,-0.5049101,15.02088,37.35836,34.78179,1002.01
4.323397160,9.608309,-7.563874,-16.41096,-0.1917897,-0.8884489,-0.5017638,15.02088,37.35836,34.78179,1002.01
4.328404427,8.196664,-6.534874,-16.83891,-0.1828952,-0.8954775,-0.5086746,14.32339,37.7352,33.85976,1002.01
4.333414555,6.600892,-5.384815,-17.02231,-0.1799987,-0.8994987,-0.5020733,14.32339,37.7352,33.85976,1002.01
4.338428021,5.189247,-4.113697,-17.32799,-0.1786382,-0.8981868,-0.4948031,14.32339,37.7352,33.85976,1002.01
4.343433857,4.207233,-3.326814,-17.75594,-0.161152,-0.8958079,-0.5017556,14.32339,37.7352,33.85976,1002.01
4.348443985,3.65485,-2.72152,-18.12276,-0.1559733,-0.8859968,-0.5003726,14.32339,37.7352,33.85976,1002.01
4.353453636,4.023106,-2.539932,-18.85639,-0.1453905,-0.8850151,-0.4939893,14.32339,37.7352,33.85976,1002.01
4.358462811,4.329985,-2.72152,-19.34548,-0.1309014,-0.8788568,-0.4974627,14.32339,37.7352,33.85976,1002.01
4.363472939,5.864381,-2.66099,-19.77343,-0.1226853,-0.8752526,-0.5001313,14.32339,37.7352,33.85976,1002.014
4.368483067,7.705657,-2.782049,-20.26251,-0.1139921,-0.8721638,-0.5013735,14.32339,37.7352,33.85976,1002.014
4.373492241,10.22207,-3.205755,-20.87387,-0.1048198,-0.8721099,-0.4979217,14.32339,37.7352,33.85976,1002.014
4.378502369,12.61573,-3.992638,-21.72977,-0.09314447,-0.8758655,-0.4969938,13.56616,37.72575,33.3903,1002.014
4.383512020,15.37764,-5.324286,-22.70795,-0.08581382,-0.8831803,-0.4928786,13.56616,37.72575,33.3903,1002.014
4.388522148,17.64855,-6.595403,-23.80839,-0.08181116,-0.8949348,-0.4889636,13.56616,37.72575,33.3903,1002.014
4.393531323,19.36707,-8.411286,-24.60316,-0.0818215,-0.8979884,-0.4837943,13.56616,37.72575,33.3903,1002.014
4.398541451,20.10358,-9.985051,-25.39792,-0.07810665,-0.9188688,-0.4864757,13.56616,37.72575,33.3903,1002.014
4.403551102,20.59459,-11.61935,-25.58133,-0.07733931,-0.9383743,-0.4872105,13.56616,37.72575,33.3903,1002.012
4.408560276,20.10358,-12.89046,-25.39792,-0.07506713,-0.9637931,-0.4847926,13.56616,37.72575,33.3903,1002.012
4.413570404,19.06019,-13.67735,-24.66429,-0.07823601,-0.9840044,-0.4788643,13.56616,37.72575,33.3903,1002.012
4.418580532,18.50781,-13.85894,-23.50271,-0.07930171,-1.005305,-0.4873726,13.56616,37.72575,33.3903,1002.012
4.423589707,18.0168,-13.79841,-22.27999,-0.08396178,-1.013008,-0.494917,13.56616,37.72575,33.3903,1002.012
4.428599835,18.56918,-13.49576,-20.87387,-0.09443358,-1.010695,-0.51655,13.17981,38.10227,32.99595,1002.012
4.433609486,18.69193,-13.3747,-20.62933,-0.1006935,-0.999083,-0.5363482,13.17981,38.10227,32.99595,1002.012
4.438618660,18.38506,-14.04052,-21.66864,-0.1111908,-0.9932971,-0.5602518,13.17981,38.10227,32.99595,1002.012
4.443628788,17.64855,-15.4327,-23.86953,-0.1191119,-1.006289,-0.5733137,13.17981,38.10227,32.99595,1002.012
4.448638916,15.43902,-16.70382,-25.94814,-0.1209755,-1.015225,-0.5683856,13.17981,38.10227,32.99595,1002.012
4.453648567,12.24747,-16.76435,-27.04859,-0.1189293,-1.024023,-0.5667791,13.17981,38.10227,32.99595,1002.012
4.458658218,10.16069,-16.03799,-26.5595,-0.1163232,-1.02809,-0.5789217,13.17981,38.10227,32.99595,1002.012
4.463667870,8.073913,-15.55376,-26.00928,-0.1245381,-1.017052,-0.5963576,13.17981,38.10227,32.99595,1002.012
4.468677998,5.43475,-15.4327,-26.07042,-0.1242321,-0.9927392,-0.6122473,13.17981,38.10227,32.99595,1002.012
4.473687172,2.550085,-15.67482,-26.3761,-0.1228491,-0.9772387,-0.6265402,13.17981,38.10227,32.99595,1002.012
4.478697300,-0.2118291,-15.61429,-27.10973,-0.1228463,-0.9661266,-0.641974,12.48448,38.87,31.16307,1002.012
4.483706951,-2.605488,-15.79588,-27.72108,-0.1237404,-0.9538459,-0.6660208,12.48448,38.87,31.16307,1002.012
4.488716126,-4.692267,-17.36964,-28.88267,-0.1275108,-0.952639,-0.6780228,12.48448,38.87,31.16307,1002.012
4.493722439,-6.165287,-19.30658,-30.04425,-0.1379043,-0.9632617,-0.6895761,12.48448,38.87,31.16307,1002.012
4.498732090,-7.45418,-21.48564,-30.96128,-0.1559669,-0.9869229,-0.6916072,12.48448,38.87,31.16307,1002.012
4.503744125,-9.602336,-23.84629,-30.77788,-0.1637047,-1.0338,-0.6761652,12.48448,38.87,31.16307,1002.012
4.508751392,-11.93462,-26.02535,-30.28879,-0.1632564,-1.082194,-0.6534964,12.48448,38.87,31.16307,1002.012
4.513761520,-14.5124,-29.17288,-29.7997,-0.1567851,-1.139087,-0.6392629,12.48448,38.87,31.16307,1002.012
4.518770695,-17.39707,-32.07829,-29.06607,-0.1481576,-1.169472,-0.5884436,12.48448,38.87,31.16307,1002.012
4.523780823,-20.40449,-34.56,-28.9438,-0.1312729,-1.19464,-0.5464777,12.48448,38.87,31.16307,1002.015
4.528790474,-23.04365,-36.37588,-28.63812,-0.1086411,-1.210294,-0.5108227,12.79261,39.25552,31.17184,1002.015
4.533800602,-24.08704,-38.61547,-27.53768,-0.08745313,-1.215344,-0.4906345,12.79261,39.25552,31.17184,1002.015
4.538809776,-23.1664,-41.82353,-25.82587,-0.06491844,-1.206495,-0.4790344,12.79261,39.25552,31.17184,1002.015
4.543819904,-20.89549,-44.54736,-24.66429,-0.05603483,-1.190981,-0.4687507,12.79261,39.25552,31.17184,1002.015
4.548829555,-16.90606,-47.02906,-23.9918,-0.02591523,-1.198428,-0.4653871,12.79261,39.25552,31.17184,1002.015
4.553839207,-12.85526,-50.11606,-24.11407,-0.01338239,-1.207485,-0.4463938,12.79261,39.25552,31.17184,1002.015
4.558848858,-9.540959,-53.32412,-24.54202,-0.002137687,-1.217828,-0.3947874,12.79261,39.25552,31.17184,1002.015
4.563858986,-7.76106,-56.95589,-25.45906,0.02264271,-1.236122,-0.3289412,12.79261,39.25552,31.17184,1002.015
4.568868160,-5.367401,-60.58765,-25.33679,0.03912678,-1.262757,-0.2461923,12.79261,39.25552,31.17184,1002.015
4.573878288,-2.298609,-63.91677,-24.78657,0.0679747,-1.265685,-0.1259072,12.79261,39.25552,31.17184,1002.015
4.578887939,0.5246812,-65.43001,-25.45906,0.05921663,-1.262156,-0.03359923,11.30939,39.53041,32.06612,1002.015
4.583898067,6.539515,-64.21942,-26.31496,0.0733775,-1.256427,0.04219048,11.30939,39.53041,32.06612,1002.015
4.588907242,15.25489,-61.01136,-24.8477,0.09388021,-1.249347,0.0652362,11.30939,39.53041,32.06612,1002.015
4.593917370,26.85493,-55.98742,-26.3761,0.1163156,-1.225088,0.06540907,11.30939,39.53041,32.06612,1002.015
4.598927021,38.14808,-48.30018,-28.69926,0.1210462,-1.147848,0.06502842,11.30939,39.53041,32.06612,1002.015
4.603936672,41.76926,-39.2813,-30.34993,0.1513433,-1.079443,0.04148811,11.30939,39.53041,32.06612,1002.015
4.608946323,42.19889,-29.89923,-31.38923,0.187259,-1.024254,-0.03872068,11.30939,39.53041,32.06612,1002.015
4.613956451,37.47295,-26.81223,-30.83901,0.219295,-0.9736733,-0.1124143,11.30939,39.53041,32.06612,1002.015
4.618965626,31.27399,-25.299,-30.10538,0.2367674,-0.9299346,-0.1744926,11.30939,39.53041,32.06612,1002.015
4.623975754,25.19778,-24.81476,-30.16652,0.252641,-0.8926236,-0.2137665,12.79864,39.26139,30.71457,1002.015
4.628985405,19.5512,-26.26747,-30.53333,0.2485534,-0.8738592,-0.2659461,12.79864,39.26139,30.71457,1002.015
4.633995056,15.50039,-29.05182,-31.14469,0.2417909,-0.8678511,-0.2763522,12.79864,39.26139,30.71457,1002.015
4.639004707,12.1861,-32.44147,-31.38923,0.2274501,-0.8852637,-0.271864,12.79864,39.26139,30.71457,1002.015
4.644014835,9.424181,-36.37588,-30.34993,0.2145184,-0.8982187,-0.2691149,12.79864,39.26139,30.71457,1002.015
4.649024010,7.030522,-40.97612,-28.02676,0.1918479,-0.9314765,-0.2811643,12.79864,39.26139,30.71457,1002.013
4.654034138,6.048509,-44.85,-25.27565,0.1736358,-0.9489343,-0.2771948,12.79864,39.26139,30.71457,1002.013
4.659043789,6.294012,-49.20812,-23.50271,0.1497677,-0.956506,-0.3022129,12.79864,39.26139,30.71457,1002.013
4.664053917,6.355388,-54.35312,-22.15772,0.1334835,-0.9663878,-0.307547,12.79864,39.26139,30.71457,1002.013
4.669063091,4.759616,-59.07442,-20.87387,0.1089618,-0.9698296,-0.3218431,12.79864,39.26139,30.71457,1002.013
4.674073219,2.059078,-63.37201,-20.38478,0.07999204,-0.9775831,-0.32193,11.32578,40.32389,29.32985,1002.013
4.679082870,-2.175857,-66.09583,-19.95683,0.04578707,-0.9912452,-0.323252,11.32578,40.32389,29.32985,1002.013
4.684092522,-8.190691,-67.97224,-19.59002,0.01880542,-1.009956,-0.313166,11.32578,40.32389,29.32985,1002.013
4.689102173,-15.31029,-68.45648,-18.61185,-0.005226201,-1.02953,-0.3059682,11.32578,40.32389,29.32985,1002.017
4.694108009,-21.57063,-68.45648,-16.96118,-0.02638984,-1.052185,-0.2906921,11.32578,40.32389,29.32985,1002.017
4.699120998,-25.37593,-66.76166,-15.49392,-0.04758714,-1.055739,-0.2982342,11.32578,40.32389,29.32985,1002.017
4.704127312,-27.70822,-64.03783,-13.90439,-0.07237981,-1.049735,-0.2992,11.32578,40.32389,29.32985,1002.017
4.709137440,-28.99711,-62.16142,-13.23189,-0.09614565,-1.042569,-0.3073194,11.32578,40.32389,29.32985,1002.017
4.714147568,-28.56748,-59.8613,-13.17076,-0.112971,-1.020938,-0.3032913,11.32578,40.32389,29.32985,1002.017
4.719156742,-26.2352,-57.50065,-13.23189,-0.1243487,-1.007024,-0.299986,11.32578,40.32389,29.32985,1002.017
4.724166393,-22.49127,-53.92942,-13.23189,-0.1407231,-0.9854668,-0.292593,11.69751,40.7107,29.33964,1002.017
4.729176521,-18.44046,-50.78189,-13.35416,-0.161492,-0.9554735,-0.2935693,11.69751,40.7107,29.33964,1002.015
4.734185696,-15.37167,-47.33171,-13.47643,-0.1676817,-0.9327348,-0.2884381,11.69751,40.7107,29.33964,1002.015
4.739195824,-12.85526,-44.4263,-12.19258,-0.1699056,-0.9061908,-0.2970592,11.69751,40.7107,29.33964,1002.015
4.744205952,-10.4616,-41.763,-10.48078,-0.1652628,-0.8808613,-0.3119085,11.69751,40.7107,29.33964,1002.015
4.749215126,-7.392805,-38.55494,-9.074656,-0.1573664,-0.8517755,-0.3184157,11.69751,40.7107,29.33964,1002.015
4.754224777,-4.815019,-36.67853,-7.607396,-0.1552899,-0.8162258,-0.3333808,11.69751,40.7107,29.33964,1002.015
4.759234905,-1.68485,-35.46794,-6.262407,-0.148842,-0.7957306,-0.3286965,11.69751,40.7107,29.33964,1002.015
4.764244080,1.199816,-33.9547,-5.284234,-0.1310207,-0.7595245,-0.3204245,11.69751,40.7107,29.33964,1002.015
4.769254208,4.084481,-32.19935,-5.03969,-0.1338047,-0.7377118,-0.3152964,11.69751,40.7107,29.33964,1002.015
4.774263859,5.987133,-30.62559,-4.856283,-0.1268536,-0.7191838,-0.3097212,12.79859,39.97409,29.34951,1002.015
4.779273510,6.846395,-29.53606,-4.000381,-0.1257255,-0.7073242,-0.2943639,12.79859,39.97409,29.34951,1002.015
4.784283161,7.644281,-27.53859,-3.205616,-0.1109527,-0.698612,-0.281881,12.79859,39.97409,29.34951,1002.015
4.789293289,7.398777,-25.299,-2.533122,-0.1050375,-0.6888402,-0.2579091,12.79859,39.97409,29.34951,1002.015
4.794303417,5.618878,-22.81729,-1.371541,-0.1014519,-0.6994305,-0.2621223,12.79859,39.97409,29.34951,1002.015
4.799312592,6.232636,-20.63823,-0.02655234,-0.07981352,-0.6969838,-0.2488521,12.79859,39.97409,29.34951,1002.015
4.804322243,8.626295,-17.36964,0.3402627,-0.04621824,-0.7036743,-0.2545567,12.79859,39.97409,29.34951,1002.015
4.809332371,10.52895,-15.4327,0.7682135,-0.05128714,-0.6876241,-0.2549548,12.79859,39.97409,29.34951,1002.015
4.814341545,11.87922,-14.76688,0.4625343,-0.05136314,-0.6847779,-0.2514837,12.79859,39.97409,29.34951,1002.015
4.819351673,14.57975,-13.19311,0.7070777,-0.05561195,-0.6881065,-0.2578968,12.79859,39.97409,29.34951,1002.015
4.824361801,17.03479,-11.92199,1.012757,-0.06124362,-0.6867437,-0.2775985,13.55797,40.37441,28.90812,1002.015
4.829370975,19.30569,-12.04305,2.357745,-0.04777811,-0.7058234,-0.2882881,13.55797,40.37441,28.90812,1002.015
4.834380627,21.26972,-11.74041,3.947277,-0.06231489,-0.7014957,-0.2945067,13.55797,40.37441,28.90812,1002.015
4.839390755,21.8221,-11.61935,4.864314,-0.05618734,-0.713783,-0.3078901,13.55797,40.37441,28.90812,1002.015
4.844399929,22.19036,-11.13511,6.270438,-0.0472827,-0.7283591,-0.3054778,13.55797,40.37441,28.90812,1002.015
4.849410057,21.8221,-10.40876,7.004068,-0.03677883,-0.7450882,-0.3141839,13.55797,40.37441,28.90812,1002.02
4.854419708,22.00623,-9.621875,8.349057,-0.03469228,-0.755304,-0.3145529,13.55797,40.37441,28.90812,1002.02
4.859432697,21.69935,-9.682405,9.021551,-0.02129871,-0.7745564,-0.3180423,13.55797,40.37441,28.90812,1002.02
4.864439011,21.20835,-9.07711,9.877453,-0.03379161,-0.7785278,-0.3231159,13.55797,40.37441,28.90812,1002.02
4.869449139,19.91945,-8.895522,10.9779,-0.01744323,-0.7986327,-0.3299735,13.55797,40.37441,28.90812,1002.02
4.874459267,20.10358,-8.229698,12.01721,-0.005644634,-0.80815,-0.3331075,13.94477,40.38709,28.52225,1002.02
4.879468441,20.28771,-6.716462,12.6897,-0.001332698,-0.811232,-0.3240547,13.94477,40.38709,28.52225,1002.02
4.884478092,19.85808,-5.021638,13.17879,-0.00990022,-0.8195717,-0.327816,13.94477,40.38709,28.52225,1002.02
4.889488220,18.93744,-3.932108,13.42333,-0.004012289,-0.8218337,-0.3316907,13.94477,40.38709,28.52225,1002.018
4.894497395,18.63056,-2.358343,13.85128,-0.004249865,-0.8313437,-0.3426258,13.94477,40.38709,28.52225,1002.018
4.899503231,18.32368,-0.5424604,14.15696,0.001752936,-0.8343394,-0.3566178,13.94477,40.38709,28.52225,1002.018
4.904513359,17.89405,0.8497164,13.79015,0.007044992,-0.8313231,-0.3569337,13.94477,40.38709,28.52225,1002.018
4.909522533,17.40304,1.878717,13.60674,-0.002005307,-0.8325986,-0.3705214,13.94477,40.38709,28.52225,1002.018
4.914532661,17.03479,2.726129,13.11765,-0.001794712,-0.8437033,-0.3757469,13.94477,40.38709,28.52225,1002.018
4.919542789,17.15754,2.968246,13.11765,-0.0108109,-0.8524688,-0.3824117,13.94477,40.38709,28.52225,1002.018
4.924552441,18.56918,3.876188,13.3622,-0.009673447,-0.8596221,-0.3889196,14.3445,40.41233,27.15652,1002.018
4.929561615,19.36707,4.602541,13.23992,-0.006891061,-0.8598791,-0.3764102,14.3445,40.41233,27.15652,1002.018
4.934571743,20.84009,6.176306,12.81197,-0.04540626,-0.8453622,-0.3742982,14.3445,40.41233,27.15652,1002.018
4.939581871,22.92687,9.384366,12.20061,-0.01184628,-0.8772303,-0.3891293,14.3445,40.41233,27.15652,1002.018
4.944591045,23.84751,7.750072,14.70718,0.02425085,-0.8831904,-0.4034316,14.3445,40.41233,27.15652,1002.018
4.949601173,23.90888,6.357894,13.91242,0.02009391,-0.8652439,-0.400866,14.3445,40.41233,27.15652,1002.018
4.954610825,24.21576,7.629013,12.07834,0.01809327,-0.8760231,-0.3801528,14.3445,40.41233,27.15652,1002.018
4.959619999,23.72476,9.565954,11.28358,0.0122773,-0.8735884,-0.3834784,14.3445,40.41233,27.15652,1002.018
4.964630127,23.17237,11.07919,11.34471,0.009663329,-0.8804989,-0.4025054,14.3445,40.41233,27.15652,1002.018
4.969640255,22.12898,12.22925,10.91676,0.002081257,-0.8902994,-0.4058325,14.3445,40.41233,27.15652,1002.018
4.974649429,20.22633,12.9556,11.03903,-0.003087579,-0.8990773,-0.4095786,14.69256,41.94246,26.72012,1002.018
4.977154732,19.30569,13.31878,11.16131,-0.006314293,-0.9108459,-0.4095761,14.69256,41.94246,26.72012,1002.018
4.982164383,16.54378,14.28725,11.16131,-0.01068656,-0.9094232,-0.4105241,14.69256,41.94246,26.72012,1002.018
4.987174034,14.39563,15.31625,11.46698,-0.01776692,-0.927252,-0.4045419,14.69256,41.94246,26.72012,1002.018
4.992183685,11.44958,16.95055,12.07834,-0.02676947,-0.9390134,-0.4084376,14.69256,41.94246,26.72012,1002.018
4.997193813,9.669684,17.6769,12.87311,-0.02808817,-0.9462828,-0.4116095,14.69256,41.94246,26.72012,1002.018
5.002202988,7.644281,18.94802,13.72901,-0.03633277,-0.9489459,-0.4074638,14.69256,41.94246,26.72012,1002.018
5.007213116,5.680254,18.94802,14.2181,-0.06291078,-0.9456326,-0.4196004,14.69256,41.94246,26.72012,1002.018
5.012222767,3.777602,17.73743,14.64605,-0.06127162,-0.9608142,-0.4167989,14.69256,41.94246,26.72012,1002.018
5.017232418,2.243205,17.49531,15.68536,-0.05102072,-0.9731029,-0.4070795,14.69256,41.94246,26.72012,1002.018
5.022242069,0.7088088,16.76896,17.09148,-0.05428986,-0.9819446,-0.4069661,15.03641,41.1964,26.26052,1002.018
5.027252197,-0.2118291,15.49784,18.25306,-0.04084354,-1.00107,-0.4157357,15.03641,41.1964,26.26052,1002.018
5.032261372,-0.1504533,13.62143,19.90373,-0.02249603,-0.9984313,-0.4125797,15.03641,41.1964,26.26052,1002.018
5.037273884,-0.02770153,12.16872,21.37099,-0.0176564,-1.001403,-0.4078422,15.03641,41.1964,26.26052,1002.018
5.042281151,0.09505019,10.4739,22.22689,-0.01476117,-1.000884,-0.4073147,15.03641,41.1964,26.26052,1002.018
5.047290802,0.7088088,8.536954,22.77711,-0.008563968,-0.9944732,-0.4060516,15.03641,41.1964,26.26052,1002.022
5.052300453,1.383943,6.236835,22.89938,-0.009996059,-0.9949477,-0.4075246,15.03641,41.1964,26.26052,1002.022
5.057310581,2.488709,3.6946,22.89938,-0.007982486,-0.9997859,-0.4081702,15.03641,41.1964,26.26052,1002.022
5.062320232,4.145857,1.031305,22.77711,-0.003467559,-1.005914,-0.4146074,15.03641,41.1964,26.26052,1002.022
5.067329884,6.17126,-1.69252,23.08279,-0.009072443,-1.012564,-0.4259646,15.03641,41.1964,26.26052,1002.022
5.072339535,8.503543,-3.689991,23.63301,-0.01086054,-1.016775,-0.4347906,16.1615,41.97766,26.28619,1002.022
5.077349663,9.853812,-5.445344,24.36664,-0.01227066,-1.015682,-0.4405283,16.1615,41.97766,26.28619,1002.022
5.082358837,9.853812,-6.474345,24.978,-0.0276846,-1.00812,-0.4600861,16.1615,41.97766,26.28619,1002.022
5.087368965,8.319416,-6.837521,25.40595,-0.03909739,-1.008781,-0.4803997,16.1615,41.97766,26.28619,1002.02
5.092378616,5.74163,-6.898051,25.95617,-0.05508649,-0.999424,-0.4936481,16.1615,41.97766,26.28619,1002.02
5.097383976,1.752198,-5.687462,26.38413,-0.06912109,-0.9915133,-0.5064527,16.1615,41.97766,26.28619,1002.02
5.102394104,-2.359984,-4.355814,27.24003,-0.08550609,-0.982455,-0.5278848,16.1615,41.97766,26.28619,1002.02
5.107404232,-6.594918,-2.842579,28.2182,-0.1020337,-0.9686914,-0.5419317,16.1615,41.97766,26.28619,1002.02
5.112413883,-10.03197,-0.8451076,29.19637,-0.1203323,-0.9575836,-0.5685893,16.1615,41.97766,26.28619,1002.02
5.117423058,-12.85526,0.9102458,30.05228,-0.1405487,-0.9520081,-0.5897094,16.1615,41.97766,26.28619,1002.02
5.122433186,-14.69653,1.333952,30.41909,-0.167534,-0.9464973,-0.6123371,15.02652,41.57555,26.26422,1002.02
5.127443314,-15.67855,2.60507,29.19637,-0.2111806,-0.9723237,-0.6214181,15.02652,41.57555,26.26422,1002.02
5.132452488,-17.51982,2.181364,26.38413,-0.2463805,-1.021756,-0.6183441,15.02652,41.57555,26.26422,1002.02
5.137462139,-21.44788,-0.481931,24.24437,-0.2636635,-1.120778,-0.5929632,15.02652,41.57555,26.26422,1002.02
5.142472267,-26.54207,-2.358343,24.42778,-0.2739537,-1.226412,-0.5317304,15.02652,41.57555,26.26422,1002.02
5.147481442,-30.59288,-0.9661665,27.3623,-0.2675325,-1.311694,-0.4738907,15.02652,41.57555,26.26422,1002.02
5.152491570,-34.0913,1.757658,32.3143,-0.2531998,-1.364825,-0.4282075,15.02652,41.57555,26.26422,1002.02
5.157501698,-39.67651,4.542012,37.2663,-0.2582225,-1.365322,-0.4104951,15.02652,41.57555,26.26422,1002.02
5.162510872,-44.03419,5.207835,41.48468,-0.2710648,-1.365948,-0.4332232,15.02652,41.57555,26.26422,1002.02
5.167520523,-47.16436,4.905188,46.31441,-0.2733105,-1.339961,-0.4389827,15.02652,41.57555,26.26422,1002.02
5.172530651,-48.33051,5.086776,49.73801,-0.2585041,-1.313142,-0.4075517,16.93249,41.22295,27.20554,1002.02
5.177540779,-48.45325,6.418424,50.83846,-0.2357082,-1.27771,-0.3637054,16.93249,41.22295,27.20554,1002.02
5.182549954,-47.77812,7.144777,49.31006,-0.2110816,-1.250585,-0.2980548,16.93249,41.22295,27.20554,1002.02
5.187560082,-46.55061,8.294836,45.58078,-0.1855666,-1.229192,-0.2167574,16.93249,41.22295,27.20554,1002.02
5.192569733,-45.56859,11.07919,40.56764,-0.1661284,-1.193875,-0.1292214,16.93249,41.22295,27.20554,1002.02
5.197578907,-44.34107,17.19266,35.06541,-0.1478824,-1.158456,-0.06715937,16.93249,41.22295,27.20554,1002.02
5.202589035,-39.98339,22.45872,30.84704,-0.1672073,-1.128465,-0.06716122,16.93249,41.22295,27.20554,1002.02
5.207599163,-30.286,25.12202,27.54571,-0.2045902,-1.102941,-0.0958524,16.93249,41.22295,27.20554,1002.02
5.212608337,-18.50184,25.84837,24.67232,-0.2284182,-1.067298,-0.0899156,16.93249,41.22295,27.20554,1002.024
5.217617989,-6.901798,25.54572,21.12645,-0.2512228,-1.044634,-0.07148944,16.93249,41.22295,27.20554,1002.024
5.222628117,2.488709,25.30361,16.72466,-0.2716695,-1.039612,-0.06956869,18.03527,39.71044,28.57984,1002.024
5.227637291,9.055926,25.84837,13.11765,-0.2875588,-1.035209,-0.03879865,18.03527,39.71044,28.57984,1002.024
5.232647419,14.57975,27.30108,10.54995,-0.3073967,-1.049927,-0.06885563,18.03527,39.71044,28.57984,1002.024
5.237657547,17.89405,28.69325,9.694045,-0.3274248,-1.058033,-0.08953343,18.03527,39.71044,28.57984,1002.024
5.242667198,20.10358,29.90384,9.755181,-0.3410639,-1.069869,-0.1136565,18.03527,39.71044,28.57984,1002.024
5.247676373,20.90147,29.90384,10.61108,-0.3464621,-1.074003,-0.1484606,18.03527,39.71044,28.57984,1002.024
5.252686501,20.53321,29.90384,11.46698,-0.3281908,-1.077963,-0.1758279,18.03527,39.71044,28.57984,1002.022
5.257696629,18.38506,30.0249,12.62856,-0.3038499,-1.077333,-0.187107,18.03527,39.71044,28.57984,1002.022
5.262705803,14.82526,30.20649,13.85128,-0.260714,-1.069097,-0.1984005,18.03527,39.71044,28.57984,1002.022
5.267715454,9.792437,30.81178,15.31854,-0.2218596,-1.060231,-0.2183592,18.03527,39.71044,28.57984,1002.022
5.272725582,5.618878,30.50914,16.35785,-0.1951277,-1.041973,-0.2505678,18.84638,37.89318,28.57416,1002.022
5.277734757,2.795588,29.35908,16.7858,-0.1683735,-1.030729,-0.2753549,18.84638,37.89318,28.57416,1002.022
5.282744885,2.304581,27.90637,15.56309,-0.1474078,-1.022032,-0.2993324,18.84638,37.89318,28.57416,1002.022
5.287755013,4.207233,25.78784,13.91242,-0.1304876,-1.010265,-0.3112186,18.84638,37.89318,28.57416,1002.022
5.292764187,6.785019,24.09302,10.85563,-0.1183398,-1.014548,-0.3083842,18.84638,37.89318,28.57416,1002.02
5.297770023,11.69509,22.94296,8.349057,-0.08906376,-1.02827,-0.3086309,18.84638,37.89318,28.57416,1002.02
5.302780151,15.80727,22.15608,5.842487,-0.07023878,-1.034727,-0.2923624,18.84638,37.89318,28.57416,1002.02
5.307789803,18.13955,22.15608,2.907968,-0.06281068,-1.045341,-0.2931768,18.84638,37.89318,28.57416,1002.02
5.312799454,20.28771,23.66931,-0.08768817,-0.04235007,-1.06194,-0.2806423,18.84638,37.89318,28.57416,1002.02
5.317809105,21.63798,25.42467,-2.961072,-0.01443363,-1.083535,-0.2792792,18.84638,37.89318,28.57416,1002.02
5.322819233,20.53321,27.30108,-5.34537,-0.0004811366,-1.07448,-0.2816865,18.85936,37.19305,28.95934,1002.02
5.327828407,17.34167,28.93537,-8.70784,0.0006320113,-1.063519,-0.3105696,18.85936,37.19305,28.95934,1002.02
5.332838535,13.53636,31.0539,-11.031,0.01738935,-1.051133,-0.3075383,18.85936,37.19305,28.95934,1002.019
5.337848187,8.442167,32.6882,-12.00918,0.02451284,-1.02361,-0.3309298,18.85936,37.19305,28.95934,1002.019
5.342857361,3.286595,32.93031,-13.17076,0.02303116,-0.9834619,-0.3361435,18.85936,37.19305,28.95934,1002.019
5.347867489,-1.500722,32.44608,-15.1271,0.01324352,-0.942086,-0.3365835,18.85936,37.19305,28.95934,1002.019
5.352877617,-6.472167,32.38555,-17.63367,0.0006308237,-0.8901017,-0.3126216,18.85936,37.19305,28.95934,1002.019
5.357886791,-11.25948,32.20396,-20.20138,-0.007773444,-0.851397,-0.3025792,18.85936,37.19305,28.95934,1002.019
5.362896919,-15.18754,32.20396,-22.03545,-0.0166198,-0.8156264,-0.2926527,18.85936,37.19305,28.95934,1002.019
5.367906571,-17.5812,32.26449,-23.19703,-0.04215107,-0.7720222,-0.2734555,18.85936,37.19305,28.95934,1002.019
5.372916699,-19.17697,32.80926,-24.72543,-0.06475002,-0.7232673,-0.2636448,18.43978,38.63881,28.96741,1002.019
5.377925873,-20.09761,32.74873,-26.00928,-0.08411788,-0.6923692,-0.2607296,18.43978,38.63881,28.96741,1002.019
5.382936001,-20.03623,31.23549,-27.232,-0.102665,-0.6502027,-0.2588195,18.43978,38.63881,28.96741,1002.019
5.387945652,-18.25633,29.41961,-28.0879,-0.112674,-0.6304129,-0.2552778,18.43978,38.63881,28.96741,1002.019
5.392955303,-15.43304,27.30108,-28.33244,-0.1280627,-0.6093068,-0.2488536,18.43978,38.63881,28.96741,1002.019
5.397964954,-11.50499,24.75884,-28.45472,-0.1435044,-0.5893373,-0.2357462,18.43978,38.63881,28.96741,1002.019
5.402975082,-7.76106,22.21661,-28.82153,-0.1550475,-0.565724,-0.229671,18.43978,38.63881,28.96741,1002.019
5.407984257,-4.20126,20.09808,-28.9438,-0.1581187,-0.5606077,-0.2208562,18.43978,38.63881,28.96741,1002.019
5.412994385,-0.2118291,18.22166,-27.96563,-0.1595291,-0.5605253,-0.2251908,18.43978,38.63881,28.96741,1002.021
5.418004036,3.347971,15.86102,-26.49837,-0.1667542,-0.5625482,-0.2267773,18.43978,38.63881,28.96741,1002.021
5.423013210,7.276026,13.43984,-24.54202,-0.1644856,-0.5733366,-0.2439838,17.34644,38.6054,29.86471,1002.021
5.428023338,10.95858,11.20025,-22.21886,-0.1575178,-0.5828902,-0.2486062,17.34644,38.6054,29.86471,1002.021
5.433033466,14.70251,8.839602,-20.44592,-0.1537893,-0.5971756,-0.2616076,17.34644,38.6054,29.86471,1002.021
5.438043118,17.7713,7.084248,-19.0398,-0.1496447,-0.6166661,-0.2608686,17.34644,38.6054,29.86471,1002.021
5.443056584,19.42845,5.328894,-17.69481,-0.1513974,-0.6329076,-0.2566979,17.34644,38.6054,29.86471,1002.021
5.448062420,19.85808,4.481482,-16.34982,-0.1558669,-0.6547918,-0.2633385,17.34644,38.6054,29.86471,1002.021
5.453072548,19.48982,3.149835,-15.00483,-0.1548624,-0.6848335,-0.2726404,17.34644,38.6054,29.86471,1002.021
5.458085537,18.75331,2.241893,-12.98735,-0.160181,-0.706444,-0.291291,17.34644,38.6054,29.86471,1002.021
5.463091850,18.0168,0.8497164,-11.7035,-0.1670283,-0.722199,-0.3106943,17.34644,38.6054,29.86471,1002.021
5.468101502,17.09616,-0.3608722,-10.11396,-0.1701338,-0.7286288,-0.3297076,17.34644,38.6054,29.86471,1002.021
5.473111153,15.93002,-1.450402,-9.074656,-0.173783,-0.741265,-0.3345472,15.83113,38.58566,28.99112,1002.021
5.478120804,14.51838,-2.479402,-7.913074,-0.1812514,-0.7568501,-0.3409763,15.83113,38.58566,28.99112,1002.021
5.483130932,13.29086,-3.326814,-6.81263,-0.1805096,-0.7728834,-0.3439817,15.83113,38.58566,28.99112,1002.021
5.488143921,12.24747,-3.81105,-5.651049,-0.1783581,-0.7920296,-0.3384434,15.83113,38.58566,28.99112,1002.021
5.493150234,11.81784,-4.416344,-4.428332,-0.1848126,-0.8100167,-0.3459153,15.83113,38.58566,28.99112,1002.019
5.498156071,12.86123,-4.113697,-3.755838,-0.1855574,-0.8241314,-0.3483813,15.83113,38.58566,28.99112,1002.019
5.503165722,14.88663,-3.024167,-3.14448,-0.1862181,-0.8279485,-0.3730383,15.83113,38.58566,28.99112,1002.019
5.508175373,16.91203,-2.963638,-2.41085,-0.1888245,-0.8333266,-0.3948899,15.83113,38.58566,28.99112,1002.019
