Time (s),Gyroscope X (deg/s),Gyroscope Y (deg/s),Gyroscope Z (deg/s),Accelerometer X (g),Accelerometer Y (g),Accelerometer Z (g),Magnetometer X (uT),Magnetometer Y (uT),Magnetometer Z (uT),Barometer (hPa)
0.000000000,-0.03625914,2.264199,-1.019627,-0.05305938,-0.3117535,-0.9249055,15.14696,8.293175,48.34212,1002.039
0.005008221,1.743641,2.627375,-1.26417,-0.06020638,-0.345749,-0.9373174,15.86124,7.54388,48.73785,1002.039
0.010016918,4.198675,2.14314,-0.9584911,-0.06325557,-0.3666825,-0.9419865,15.86124,7.54388,48.73785,1002.039
0.015026093,5.671696,1.11414,0.2030897,-0.07110155,-0.3579344,-0.9450909,15.86124,7.54388,48.73785,1002.039
0.020034790,6.653709,0.3877864,1.67035,-0.07515998,-0.3488378,-0.9399781,15.86124,7.54388,48.73785,1002.039
0.025043488,6.776461,-0.2175079,2.159436,-0.07239959,-0.3410709,-0.9362931,15.86124,7.54388,48.73785,1002.039
0.030052662,6.899213,0.327257,2.281708,-0.07728669,-0.3361944,-0.9390366,15.86124,7.54388,48.73785,1002.039
0.035061359,6.653709,0.5088453,2.465116,-0.07961458,-0.3410504,-0.9416458,15.86124,7.54388,48.73785,1002.039
0.040070057,6.285454,0.5693747,2.770795,-0.08306326,-0.3392178,-0.9387255,15.86124,7.54388,48.73785,1002.039
0.045079231,6.162703,0.9325513,2.893066,-0.08489452,-0.3435327,-0.9432313,15.86124,7.54388,48.73785,1002.036
0.050087929,5.978575,1.537846,2.893066,-0.08235579,-0.3487712,-0.9472508,15.86124,7.54388,48.73785,1002.036
0.055096626,6.224079,2.324728,2.770795,-0.07828369,-0.3608639,-0.9495945,15.83671,8.686358,48.35699,1002.036
0.060105801,6.285454,3.051081,2.893066,-0.07343981,-0.356253,-0.9556201,15.83671,8.686358,48.35699,1002.036
0.065114498,5.733071,3.111611,3.015338,-0.06537421,-0.3504862,-0.9466758,15.83671,8.686358,48.35699,1002.036
0.070123196,4.137299,3.777435,2.954202,-0.05875183,-0.3416871,-0.9429152,15.83671,8.686358,48.35699,1002.036
0.075132370,2.05052,3.959023,2.709659,-0.05453689,-0.3298582,-0.9448281,15.83671,8.686358,48.35699,1002.036
0.080141068,-1.018273,4.080082,2.587387,-0.05405792,-0.3328932,-0.9401341,15.83671,8.686358,48.35699,1002.036
0.085149765,-3.841562,4.322199,2.342844,-0.04883632,-0.3239885,-0.9416683,15.83671,8.686358,48.35699,1002.037
0.087654114,-4.946328,4.140611,2.342844,-0.05224183,-0.3220523,-0.9430681,15.83671,8.686358,48.35699,1002.037
0.092662811,-7.58549,4.140611,2.0983,-0.05175756,-0.3230554,-0.9416602,15.83671,8.686358,48.35699,1002.037
0.097671986,-9.672269,4.080082,2.40398,-0.05427282,-0.3197797,-0.9372348,15.83671,8.686358,48.35699,1002.037
0.102684021,-10.77703,3.777435,2.40398,-0.05949593,-0.3251545,-0.9403713,15.44905,8.672841,48.80817,1002.037
0.107689381,-11.69767,3.959023,2.587387,-0.06086893,-0.3290206,-0.9429338,15.44905,8.672841,48.80817,1002.037
0.112698555,-11.51355,3.656376,2.83193,-0.06952255,-0.3365574,-0.9394579,15.44905,8.672841,48.80817,1002.037
0.117707253,-10.65428,4.019552,3.076474,-0.06905218,-0.3355747,-0.9394161,15.44905,8.672841,48.80817,1002.037
0.122715950,-9.733645,4.019552,3.443289,-0.07423136,-0.3474062,-0.9379929,15.44905,8.672841,48.80817,1002.039
0.127725124,-8.260625,4.019552,3.504425,-0.07770199,-0.3471407,-0.930808,15.44905,8.672841,48.80817,1002.039
0.132733822,-6.910356,3.959023,4.054647,-0.07234328,-0.3459836,-0.935038,15.44905,8.672841,48.80817,1002.039
0.137742519,-5.621462,4.140611,4.360326,-0.07429549,-0.3450363,-0.9350203,15.44905,8.672841,48.80817,1002.039
0.142751217,-4.7622,3.959023,4.727141,-0.07092306,-0.3450328,-0.9330665,15.44905,8.672841,48.80817,1002.039
0.147760391,-4.33257,3.777435,5.093956,-0.06809725,-0.3441759,-0.9262804,15.44905,8.672841,48.80817,1002.039
0.152769089,-4.33257,3.959023,5.093956,-0.06761298,-0.345179,-0.9248724,15.46885,7.914539,48.80078,1002.039
0.157777309,-4.700825,4.20114,5.460772,-0.067108,-0.3496659,-0.9207138,15.46885,7.914539,48.80078,1002.039
0.162786961,-4.823576,4.382729,5.644179,-0.06616953,-0.3472012,-0.9210917,15.46885,7.914539,48.80078,1002.039
0.167795658,-5.314583,4.624846,5.76645,-0.07171834,-0.3597735,-0.9297907,15.46885,7.914539,48.80078,1002.039
0.172803879,-5.06908,4.866964,5.705315,-0.07371674,-0.3614611,-0.9217052,15.46885,7.914539,48.80078,1002.039
0.177813530,-4.271194,5.472259,5.949858,-0.07016402,-0.3691014,-0.9267675,15.46885,7.914539,48.80078,1002.039
0.182821751,-3.227804,6.198612,6.010994,-0.07657384,-0.3628979,-0.9246697,15.46885,7.914539,48.80078,1002.039
0.187826633,-1.938911,6.622318,6.07213,-0.06635682,-0.3666863,-0.9232763,15.46885,7.914539,48.80078,1002.039
0.192835808,-0.527266,7.46973,6.07213,-0.06597357,-0.3593505,-0.9234741,15.46885,7.914539,48.80078,1002.039
0.197844505,0.6388754,7.893435,5.827587,-0.05686169,-0.3513648,-0.9250066,15.46885,7.914539,48.80078,1002.039
0.202853203,0.7002512,8.619788,5.583043,-0.04740341,-0.3396654,-0.9182261,14.37853,8.27284,48.72189,1002.038
0.207862377,0.8230029,9.104024,5.216228,-0.04829066,-0.3384736,-0.927799,14.37853,8.27284,48.72189,1002.038
0.212871075,0.5774995,9.4672,5.3385,-0.03998444,-0.3386913,-0.9339758,14.37853,8.27284,48.72189,1002.038
0.217879772,0.4547477,9.346142,5.460772,-0.03555358,-0.3455262,-0.9313111,14.37853,8.27284,48.72189,1002.038
0.222888947,0.331996,9.104024,5.888722,-0.03843872,-0.3440015,-0.9356047,14.37853,8.27284,48.72189,1002.038
0.227897644,0.2706201,8.680318,6.316673,-0.02814544,-0.349626,-0.9390854,14.37853,8.27284,48.72189,1002.038
0.232905865,-0.097635,8.680318,6.744624,-0.03177064,-0.3345878,-0.9371059,14.37853,8.27284,48.72189,1002.038
0.237915516,-0.7113936,8.680318,6.989167,-0.03224077,-0.3345604,-0.9385507,14.37853,8.27284,48.72189,1002.038
0.242924213,-1.202401,9.043494,6.989167,-0.03573138,-0.3277805,-0.9383256,14.37853,8.27284,48.72189,1002.038
0.247932434,-1.325152,8.922436,7.355982,-0.02981087,-0.3340026,-0.9399482,14.37853,8.27284,48.72189,1002.038
0.252942085,-1.632032,9.104024,7.722797,-0.04181218,-0.3384548,-0.9450355,15.14093,8.287312,48.7994,1002.038
0.257950306,-1.141025,9.225082,8.028477,-0.05182519,-0.3432628,-0.9544421,15.14093,8.287312,48.7994,1002.038
0.262959004,-0.956897,8.922436,9.00665,-0.05103165,-0.3355933,-0.9478963,15.14093,8.287312,48.7994,1002.038
0.267968178,-1.938911,8.619788,9.862552,-0.06396922,-0.3153928,-0.942925,15.14093,8.287312,48.7994,1002.038
0.272976875,-3.780186,8.861906,10.963,-0.06460929,-0.3046679,-0.9425231,15.14093,8.287312,48.7994,1002.038
0.277985573,-5.314583,8.801376,11.51322,-0.06359734,-0.3055603,-0.9454306,15.14093,8.287312,48.7994,1002.038
0.282995701,-6.173845,9.406671,12.18571,-0.06238212,-0.3180796,-0.9521419,15.14093,8.287312,48.7994,1002.038
0.288003445,-5.682838,10.25408,12.85821,-0.05903488,-0.3412104,-0.9630808,15.14093,8.287312,48.7994,1002.038
0.293012142,-4.639449,10.67779,14.01979,-0.04859059,-0.3565682,-0.9678913,15.14093,8.287312,48.7994,1002.038
0.298021317,-4.148442,11.34361,15.0591,-0.03639383,-0.3662857,-0.9623802,15.14093,8.287312,48.7994,1002.038
0.303030014,-4.700825,11.82785,16.52636,-0.02196285,-0.362286,-0.9572874,15.14093,8.287312,48.7994,1002.038
0.308038712,-6.603477,12.06997,17.19885,-0.01593911,-0.3497296,-0.9476235,15.14093,8.287312,48.7994,1002.038
0.313047886,-9.856397,12.61473,17.68794,0.004192677,-0.33885,-0.9407738,15.14093,8.287312,48.7994,1002.038
0.318056583,-13.4162,13.28055,18.05475,0.007969074,-0.3349945,-0.9362671,15.14093,8.287312,48.7994,1002.038
0.323065281,-16.79187,14.06744,17.87134,0.0108696,-0.3324438,-0.9390258,15.14093,8.287312,48.7994,1002.038
0.328074455,-19.61516,14.30956,17.74907,0.01745619,-0.3508427,-0.9415857,15.14093,8.287312,48.7994,1002.04
0.333083153,-20.71992,14.79379,17.87134,0.006136382,-0.3729874,-0.9415736,15.14093,8.287312,48.7994,1002.04
0.338091850,-20.16754,15.15697,17.74907,0.004403864,-0.385142,-0.9449353,15.14093,8.287312,48.7994,1002.04
0.343100071,-18.20351,15.45961,17.44339,0.001340272,-0.40611,-0.9481643,15.14093,8.287312,48.7994,1002.04
0.348109722,-15.87123,14.55167,18.05475,-0.0007038563,-0.3988211,-0.9479063,15.14093,8.287312,48.7994,1002.04
0.353118420,-14.02996,13.09897,18.72725,0.003795627,-0.3814078,-0.938072,13.31102,7.486985,49.15451,1002.04
0.358126640,-13.35482,12.5542,19.3386,-0.000171206,-0.3520461,-0.9225773,13.31102,7.486985,49.15451,1002.04
0.363136292,-13.29344,12.73579,19.64428,0.007639843,-0.3287179,-0.9129674,13.31102,7.486985,49.15451,1002.04
0.368144512,-14.02996,13.5832,19.46088,0.008726994,-0.3078703,-0.9059176,13.31102,7.486985,49.15451,1002.04
0.373153210,-14.52096,14.37008,19.64428,0.01205849,-0.2988788,-0.9122711,13.31102,7.486985,49.15451,1002.04
0.378162384,-14.58234,14.97538,19.58315,0.006626014,-0.2880981,-0.9171976,13.31102,7.486985,49.15451,1002.04
0.383171082,-14.15271,15.45961,20.13337,0.001693227,-0.2838362,-0.9146795,13.31102,7.486985,49.15451,1002.04
0.388175964,-13.10932,15.76226,20.07224,-0.007530286,-0.2779556,-0.9212695,13.31102,7.486985,49.15451,1002.04
0.393185139,-12.00455,16.42809,20.19451,-0.01977879,-0.273915,-0.9140235,13.31102,7.486985,49.15451,1002.04
0.398193836,-11.08391,16.79126,20.07224,-0.02943783,-0.2734766,-0.9179416,13.31102,7.486985,49.15451,1002.04
0.403202534,-10.22465,17.45709,20.13337,-0.03763169,-0.2745035,-0.9209408,14.02665,6.415031,50.06976,1002.04
0.408211708,-9.242639,17.75973,20.13337,-0.04142549,-0.2809248,-0.9202597,14.02665,6.415031,50.06976,1002.04
0.413220406,-7.462739,17.82026,20.50019,-0.04224352,-0.2906722,-0.9215993,14.02665,6.415031,50.06976,1002.04
0.418233395,-5.498711,17.75973,20.62246,-0.04257628,-0.297382,-0.9271432,14.02665,6.415031,50.06976,1002.04
0.423238278,-3.841562,17.39656,21.29495,-0.04340795,-0.3041335,-0.9312518,14.02665,6.415031,50.06976,1002.04
0.428246975,-2.307166,16.73073,21.78404,-0.04432344,-0.3105814,-0.9276617,14.02665,6.415031,50.06976,1002.04
0.433255196,-1.447904,16.06491,22.27312,-0.04845936,-0.3227253,-0.9329676,14.02665,6.415031,50.06976,1002.04
0.438264847,-0.8341453,14.97538,23.2513,-0.04259843,-0.3275761,-0.9306945,14.02665,6.415031,50.06976,1002.04
0.443273068,-0.2203867,13.88585,24.16833,-0.04446252,-0.3289412,-0.9360495,14.02665,6.415031,50.06976,1002.04
0.448281765,-0.2817626,12.85685,25.26878,-0.04250853,-0.3324082,-0.9327995,14.02665,6.415031,50.06976,1002.038
0.453290939,-0.03625914,12.06997,26.24695,-0.04747668,-0.3257072,-0.9301888,14.04862,6.047606,49.15152,1002.038
0.458299637,-0.527266,11.34361,27.3474,-0.04321878,-0.3243758,-0.9219295,14.04862,6.047606,49.15152,1002.038
0.463308334,-1.938911,10.98044,28.57012,-0.04753626,-0.3243358,-0.9262932,14.04862,6.047606,49.15152,1002.038
0.468317509,-3.780186,10.85938,29.97624,-0.04723782,-0.3207372,-0.91318,14.04862,6.047606,49.15152,1002.038
0.473326206,-6.84898,10.98044,31.38237,-0.03807947,-0.3186975,-0.9110942,14.04862,6.047606,49.15152,1002.038
0.478334904,-9.610893,11.58573,32.17713,-0.04061366,-0.3144577,-0.9061517,14.04862,6.047606,49.15152,1002.038
0.483344078,-12.92519,12.43314,32.72735,-0.02968769,-0.3037127,-0.8993937,14.04862,6.047606,49.15152,1002.038
0.488352776,-16.48499,13.46214,33.27758,-0.02858512,-0.2883808,-0.8863071,14.04862,6.047606,49.15152,1002.037
0.493361473,-20.16754,14.55167,33.39985,-0.02136359,-0.2813185,-0.891256,14.04862,6.047606,49.15152,1002.037
0.498370648,-23.48184,15.52014,33.58326,-0.02070237,-0.26589,-0.8824943,14.04862,6.047606,49.15152,1002.037
0.503379345,-25.8755,16.12544,33.64439,-0.009088607,-0.2667648,-0.8795354,12.96001,5.630014,50.43707,1002.037
0.508388043,-26.85751,16.6702,33.52212,-0.01290085,-0.2702016,-0.8811435,12.96001,5.630014,50.43707,1002.037
0.513397217,-26.18237,17.03338,33.70553,-0.02045312,-0.2854832,-0.8798739,12.96001,5.630014,50.43707,1002.037
0.518405914,-23.85009,16.6702,33.95007,-0.0178818,-0.2946818,-0.8816411,12.96001,5.630014,50.43707,1002.037
0.523414612,-19.30828,15.94385,34.37802,-0.02418051,-0.2947738,-0.8817039,12.96001,5.630014,50.43707,1002.037
0.528423786,-13.6617,15.70173,34.80597,-0.02578582,-0.2880923,-0.8761793,12.96001,5.630014,50.43707,1002.039
0.533432484,-7.708242,15.76226,34.80597,-0.02248914,-0.2842324,-0.8721574,12.96001,5.630014,50.43707,1002.039
0.538441181,-0.956897,16.06491,34.80597,-0.02698641,-0.2745283,-0.8723111,12.96001,5.630014,50.43707,1002.039
0.543450356,5.61032,16.30703,34.62257,-0.03085295,-0.2745619,-0.8733097,12.96001,5.630014,50.43707,1002.039
0.548459053,12.72992,16.60967,34.25575,-0.02596585,-0.2794383,-0.8705662,12.96001,5.630014,50.43707,1002.039
0.553467274,19.84952,17.09391,33.8278,-0.02481174,-0.2870565,-0.8780527,13.37485,4.568432,50.04073,1002.039
0.558475971,26.47811,17.2755,33.8278,-0.03460254,-0.3044555,-0.8917803,13.37485,4.568432,50.04073,1002.039
0.563485145,32.55433,17.39656,34.07234,-0.03867382,-0.3169491,-0.9028648,13.37485,4.568432,50.04073,1002.039
0.568493843,38.56916,17.09391,34.13348,-0.03447197,-0.3277206,-0.9195721,13.37485,4.568432,50.04073,1002.039
0.573503494,44.03161,17.09391,33.95007,-0.04173443,-0.3257949,-0.9229306,13.37485,4.568432,50.04073,1002.039
0.578511715,47.59141,16.60967,33.76666,-0.04456552,-0.3286837,-0.9264306,13.37485,4.568432,50.04073,1002.039
0.583520412,50.10782,16.60967,33.33871,-0.04109919,-0.3269403,-0.9359417,13.37485,4.568432,50.04073,1002.039
0.588525295,51.15121,15.76226,32.9719,-0.04439892,-0.3237405,-0.9493051,13.37485,4.568432,50.04073,1002.039
0.593534470,51.76497,15.03591,33.03303,-0.03984587,-0.3307867,-0.9581794,13.37485,4.568432,50.04073,1002.039
0.598543167,51.76497,13.76479,33.46098,-0.04450624,-0.3299091,-0.9774097,13.37485,4.568432,50.04073,1002.039
0.603551865,50.84433,11.94891,34.31689,-0.05117965,-0.3317637,-0.9857116,12.2446,3.78214,50.40702,1002.039
0.608561039,49.18718,9.890906,35.17279,-0.06030694,-0.3342336,-0.9902159,12.2446,3.78214,50.40702,1002.036
0.613569736,47.1004,7.711847,36.45664,-0.07284706,-0.3352896,-0.9946985,12.2446,3.78214,50.40702,1002.036
0.618577957,44.21574,5.653847,37.61822,-0.08803727,-0.3258218,-0.9915982,12.2446,3.78214,50.40702,1002.036
0.623587608,39.91943,4.322199,38.96321,-0.09300943,-0.3256928,-0.9796275,12.2446,3.78214,50.40702,1002.036
0.628595829,34.3956,3.111611,40.85842,-0.09032707,-0.3135701,-0.9743362,12.2446,3.78214,50.40702,1002.036
0.633604526,27.64425,2.687905,42.69249,-0.08112403,-0.3149566,-0.9718998,12.2446,3.78214,50.40702,1002.036
0.638613701,20.52465,2.324728,44.4043,-0.06467568,-0.3198244,-0.9623203,12.2446,3.78214,50.40702,1002.036
0.643622398,14.08019,2.869493,45.99383,-0.04375206,-0.3263724,-0.9614116,12.2446,3.78214,50.40702,1002.036
0.648631096,8.556361,3.716905,47.21655,-0.02477586,-0.3319617,-0.9609652,12.2446,3.78214,50.40702,1002.038
0.653640270,3.523541,4.866964,48.31699,-0.004954337,-0.3337954,-0.9536411,12.58441,5.628222,49.97369,1002.038
0.658648968,0.08649258,5.895965,49.11176,0.01398776,-0.3318946,-0.9601176,12.58441,5.628222,49.97369,1002.038
0.663657665,-2.123038,7.288141,49.66198,0.02847959,-0.3338062,-0.9528465,12.58441,5.628222,49.97369,1002.038
0.668666840,-3.596059,8.49873,49.78425,0.04526041,-0.3233835,-0.9494091,12.58441,5.628222,49.97369,1002.038
0.673675537,-4.087066,9.406671,49.78425,0.05046307,-0.3135147,-0.9504262,12.58441,5.628222,49.97369,1002.038
0.678684235,-4.700825,9.830377,49.23403,0.06001427,-0.3041162,-0.9494984,12.58441,5.628222,49.97369,1002.038
0.683693409,-4.884952,10.19355,48.80608,0.05532637,-0.2898218,-0.9374667,12.58441,5.628222,49.97369,1002.038
0.688702106,-5.007704,10.4962,48.01131,0.05075839,-0.2752395,-0.9374354,12.58441,5.628222,49.97369,1002.038
0.693710804,-4.884952,11.10149,47.21655,0.03669025,-0.2770004,-0.9337907,12.58441,5.628222,49.97369,1002.038
0.698719978,-3.902938,11.46467,46.48291,0.03115483,-0.293579,-0.9383175,12.58441,5.628222,49.97369,1002.038
0.703728676,-2.307166,11.88838,46.23837,0.01671352,-0.3006323,-0.9382411,11.41972,6.363561,49.96281,1002.038
0.708737373,0.331996,12.67526,46.29951,0.0105797,-0.3124434,-0.9382676,11.41972,6.363561,49.96281,1002.038
0.713746548,2.848406,13.5832,46.23837,0.00783903,-0.3277349,-0.9335896,11.41972,6.363561,49.96281,1002.038
0.718755245,5.303441,15.09644,45.99383,0.006021166,-0.3360561,-0.9339232,11.41972,6.363561,49.96281,1002.038
0.723763943,7.206092,16.73073,45.93269,-0.001718987,-0.3356354,-0.9359021,11.41972,6.363561,49.96281,1002.038
0.728773117,8.924616,18.66768,45.38247,0.0003728606,-0.3438194,-0.9395572,11.41972,6.363561,49.96281,1002.036
0.733782291,10.82727,20.54409,44.95452,-0.01182288,-0.3396521,-0.9375914,11.41972,6.363561,49.96281,1002.036
0.738790035,11.93203,21.87573,44.15976,-0.007811906,-0.3468435,-0.9407102,11.41972,6.363561,49.96281,1002.036
0.743799686,12.42304,23.38897,43.18158,-0.01425886,-0.3356813,-0.9417878,11.41972,6.363561,49.96281,1002.036
0.748807907,12.60717,24.17585,41.83659,-0.008515368,-0.3307182,-0.941545,11.41972,6.363561,49.96281,1002.036
0.753816605,12.36166,25.20485,40.43047,-0.01056884,-0.3224421,-0.9417299,11.44856,5.225268,50.01705,1002.036
0.758826256,11.2569,26.17332,38.16844,-0.01077034,-0.3133349,-0.9346583,11.44856,5.225268,50.01705,1002.036
0.763834476,9.783878,26.89968,35.72301,-0.0101934,-0.317649,-0.9377,11.44856,5.225268,50.01705,1002.036
0.768843174,8.310858,27.20232,33.58326,-0.01118617,-0.3167106,-0.9367127,11.44856,5.225268,50.01705,1002.036
0.773852348,6.715086,27.26285,31.07668,-0.01187291,-0.3286667,-0.947745,11.44856,5.225268,50.01705,1002.036
0.778861046,4.996561,26.11279,29.48715,-0.0137741,-0.334664,-0.943186,11.44856,5.225268,50.01705,1002.036
0.783869743,3.769044,24.53903,28.14216,-0.01741565,-0.3457676,-0.9508501,11.44856,5.225268,50.01705,1002.036
0.788875103,1.989144,22.84421,27.04172,-0.0195297,-0.340161,-0.9415273,11.44856,5.225268,50.01705,1002.036
0.793883800,-0.2203867,21.08885,26.24695,-0.02588875,-0.3419123,-0.9334852,11.44856,5.225268,50.01705,1002.036
0.798892498,-2.798173,19.63614,25.75787,-0.02605817,-0.3387855,-0.9213553,11.81512,5.60705,50.41879,1002.036
0.803901672,-6.419349,19.03085,25.14651,-0.02774626,-0.3373507,-0.9006552,11.81512,5.60705,50.41879,1002.036
0.808910370,-10.28603,18.54662,24.77969,-0.02074617,-0.3242577,-0.8924032,11.81512,5.60705,50.41879,1002.039
0.813918591,-13.78445,18.12291,24.35174,-0.02242292,-0.3157287,-0.8824845,11.81512,5.60705,50.41879,1002.039
0.818928242,-17.16012,17.88079,23.80152,-0.00952506,-0.3038645,-0.8804703,11.81512,5.60705,50.41879,1002.039
0.823939323,-19.06277,17.75973,23.37357,-0.01259831,-0.2972388,-0.8735202,11.81512,5.60705,50.41879,1002.039
0.828945160,-19.86066,17.82026,22.94562,-0.009356912,-0.2940164,-0.8632765,11.81512,5.60705,50.41879,1002.039
0.833954811,-19.30828,18.12291,21.84517,-0.01458359,-0.2943517,-0.8729485,11.81512,5.60705,50.41879,1002.039
0.838963032,-15.87123,19.09138,20.56132,-0.01825567,-0.3125957,-0.867911,11.81512,5.60705,50.41879,1002.039
0.843971729,-9.488142,20.54409,19.27747,-0.01929609,-0.3383791,-0.8727457,11.81512,5.60705,50.41879,1002.039
0.848980427,-1.386528,21.3915,18.54384,-0.03220231,-0.3452154,-0.8808152,11.12537,5.213864,50.40392,1002.039
0.853989601,5.487568,20.60462,18.42157,-0.02569608,-0.3311424,-0.8730111,11.12537,5.213864,50.40392,1002.039
0.858998299,10.09076,18.97032,19.03292,-0.02719463,-0.3011308,-0.862754,11.12537,5.213864,50.40392,1002.039
0.864006996,11.19552,17.03338,19.1552,-0.02129689,-0.2843337,-0.8466835,11.12537,5.213864,50.40392,1002.039
0.869016170,12.23891,16.42809,19.27747,-0.02715099,-0.2809809,-0.847572,11.12537,5.213864,50.40392,1002.039
0.874024868,15.0622,16.36756,17.99362,-0.02817632,-0.2941082,-0.8711451,11.12537,5.213864,50.40392,1002.039
0.879033565,20.27915,16.06491,17.32112,-0.0308912,-0.3298876,-0.8879078,11.12537,5.213864,50.40392,1002.039
0.884042740,27.46013,15.45961,17.44339,-0.01864793,-0.3635768,-0.9010867,11.12537,5.213864,50.40392,1002.039
0.889051437,34.57973,13.88585,18.05475,-0.01554819,-0.3696341,-0.9113785,11.12537,5.213864,50.40392,1002.037
0.894061089,40.10355,12.00944,19.76656,-0.00891873,-0.3613227,-0.9076364,11.12537,5.213864,50.40392,1002.037
0.899069309,43.47923,10.19355,21.11154,0.003400424,-0.3426247,-0.9058483,10.00767,4.115801,50.4405,1002.037
0.904078007,44.70675,9.164554,21.11154,0.007931495,-0.3332122,-0.8881496,10.00767,4.115801,50.4405,1002.037
0.909086704,44.58399,9.104024,20.31678,0.013296,-0.3280028,-0.898472,10.00767,4.115801,50.4405,1002.037
0.914095879,44.27711,9.58826,20.13337,0.01389539,-0.3287295,-0.9085845,10.00767,4.115801,50.4405,1002.037
0.919104576,44.89087,9.4672,19.21633,0.01093658,-0.3524747,-0.9181646,10.00767,4.115801,50.4405,1002.037
0.924112797,45.93426,9.951436,19.21633,0.0126656,-0.3628975,-0.9305574,10.00767,4.115801,50.4405,1002.037
0.929122448,48.57342,10.07249,18.91065,0.01558158,-0.3838883,-0.9495875,10.00767,4.115801,50.4405,1002.035
0.934131145,51.51946,10.07249,19.3386,0.01832334,-0.4017639,-0.9560077,10.00767,4.115801,50.4405,1002.035
0.939139366,55.01789,8.982965,20.13337,0.02435318,-0.4117619,-0.9630584,10.00767,4.115801,50.4405,1002.035
0.944149017,58.14806,8.801376,20.62246,0.02964221,-0.4112768,-0.9596267,10.00767,4.115801,50.4405,1002.035
0.949157238,59.86658,8.317142,20.50019,0.03191887,-0.4100774,-0.9470665,9.960687,5.949203,50.39304,1002.035
0.954165936,60.84859,8.4382,20.07224,0.04237699,-0.3998042,-0.9412919,9.960687,5.949203,50.39304,1002.035
0.959175110,60.05071,8.559259,18.91065,0.04038335,-0.3918893,-0.9467756,9.960687,5.949203,50.39304,1002.035
0.964183807,58.08668,8.196082,17.93248,0.03890557,-0.3929783,-0.9429869,9.960687,5.949203,50.39304,1002.035
0.969192505,55.63165,7.832906,17.44339,0.02858955,-0.3823605,-0.9441215,9.960687,5.949203,50.39304,1002.034
0.974201679,53.05386,7.046024,16.83204,0.02223605,-0.3810696,-0.9407686,9.960687,5.949203,50.39304,1002.034
0.979210377,49.67819,6.3802,16.15954,0.01650062,-0.3824799,-0.9466423,9.960687,5.949203,50.39304,1002.034
0.984219074,46.8549,6.017024,15.85386,0.005389313,-0.3866028,-0.9445011,9.960687,5.949203,50.39304,1002.034
0.989224434,43.84748,5.169611,15.79273,-0.001869095,-0.3876961,-0.9441304,9.960687,5.949203,50.39304,1002.034
0.994233131,40.90144,4.745905,15.42591,-0.001857724,-0.3901928,-0.9418228,9.960687,5.949203,50.39304,1002.034
0.999241352,37.28027,4.685376,15.0591,-0.0005326895,-0.3864418,-0.9344602,9.177629,6.692195,50.38825,1002.034
1.004251003,33.41359,4.322199,14.93683,-0.001076792,-0.3850775,-0.9305694,9.177629,6.692195,50.38825,1002.034
1.009259701,28.13526,4.322199,14.3866,-0.0001572547,-0.3816487,-0.9304303,9.177629,6.692195,50.38825,1002.034
1.014267921,22.91831,4.20114,14.01979,0.01002115,-0.3865394,-0.9237936,9.177629,6.692195,50.38825,1002.034
1.019277573,18.06962,4.443258,14.01979,0.01679504,-0.3854531,-0.9241691,9.177629,6.692195,50.38825,1002.034
1.024285793,13.15955,4.322199,13.71411,0.02482756,-0.3777466,-0.9146709,9.177629,6.692195,50.38825,1002.034
1.029296398,9.354247,4.26167,13.5307,0.03172442,-0.3834321,-0.9177053,9.177629,6.692195,50.38825,1002.034
1.034303665,6.162703,4.080082,13.22502,0.03953627,-0.3846902,-0.9215236,9.177629,6.692195,50.38825,1002.034
1.039312363,3.584917,3.898494,12.85821,0.04387877,-0.3902228,-0.9120832,9.177629,6.692195,50.38825,1002.034
1.044321060,2.05052,3.23267,12.79707,0.04490689,-0.3936003,-0.9131631,9.177629,6.692195,50.38825,1002.034
1.049330235,1.682265,2.566846,12.49139,0.04446,-0.3965458,-0.9127988,10.24189,10.00616,50.0466,1002.035
1.054338932,2.05052,2.022081,12.30798,0.0513574,-0.409802,-0.9055502,10.24189,10.00616,50.0466,1002.035
1.059347630,3.155286,1.658904,12.43026,0.04999122,-0.4151661,-0.9067281,10.24189,10.00616,50.0466,1002.035
1.064356804,4.996561,1.295728,11.8189,0.0441379,-0.4183738,-0.8987367,10.24189,10.00616,50.0466,1002.035
1.069365501,6.530958,1.174669,11.02413,0.04766158,-0.4270934,-0.8995157,10.24189,10.00616,50.0466,1002.035
1.074374199,8.372233,1.295728,10.22937,0.05249439,-0.4285667,-0.8961628,10.24189,10.00616,50.0466,1002.035
1.079383373,9.599751,1.235198,9.618008,0.05786071,-0.4354679,-0.8901284,10.24189,10.00616,50.0466,1002.035
1.084392071,10.52039,1.840493,8.27302,0.05737139,-0.4354865,-0.8896532,10.24189,10.00616,50.0466,1002.035
1.089400768,11.37965,2.506317,7.172575,0.06552333,-0.4295124,-0.8893492,10.24189,10.00616,50.0466,1002.034
1.094409943,11.37965,3.23267,6.07213,0.0675187,-0.430356,-0.8936871,10.24189,10.00616,50.0466,1002.034
1.099418640,11.0114,3.23267,5.032821,0.06501785,-0.4270458,-0.8907017,9.886094,9.246068,49.57584,1002.034
1.104427338,10.15213,3.656376,3.993511,0.06109222,-0.4236878,-0.8906109,9.886094,9.246068,49.57584,1002.034
1.109436512,8.86324,3.111611,2.770795,0.04715912,-0.4220956,-0.9046159,9.886094,9.246068,49.57584,1002.034
1.114445210,7.574347,2.445787,1.914893,0.03262589,-0.4228073,-0.9042991,9.886094,9.246068,49.57584,1002.034
1.119453907,6.469582,1.477316,1.548078,0.0206011,-0.4252967,-0.9097924,9.886094,9.246068,49.57584,1002.034
1.124463081,5.487568,0.4483158,1.120127,0.003732159,-0.4334072,-0.9078572,9.886094,9.246068,49.57584,1002.034
1.129471779,5.671696,-0.2780373,0.814448,-0.003738558,-0.4484929,-0.9147478,9.886094,9.246068,49.57584,1002.034
1.134480000,5.733071,-1.185979,1.120127,-0.007684369,-0.4492217,-0.9071246,9.886094,9.246068,49.57584,1002.034
1.139488697,5.057937,-1.851802,1.303535,-0.01521725,-0.4358303,-0.8999591,9.886094,9.246068,49.57584,1002.034
1.144497871,2.848406,-2.214979,1.486942,-0.008108579,-0.4295437,-0.892926,9.886094,9.246068,49.57584,1002.034
1.149506569,0.4547477,-2.214979,1.058991,-0.01543265,-0.4247372,-0.8942536,9.479936,10.38089,49.18889,1002.034
1.154515266,-2.24579,-1.912332,0.814448,-0.005630459,-0.4278606,-0.9005267,9.479936,10.38089,49.18889,1002.034
1.159524441,-4.884952,-1.730744,0.6921763,-0.008485541,-0.4308069,-0.9016266,9.479936,10.38089,49.18889,1002.034
1.164533138,-7.278611,-1.428097,0.5699046,-0.006357595,-0.4383994,-0.9095834,9.479936,10.38089,49.18889,1002.034
1.169541836,-8.997135,-1.549155,0.8755838,-0.002235512,-0.4518864,-0.9148628,9.479936,10.38089,49.18889,1002.032
1.174551010,-10.3474,-1.912332,1.486942,-0.004096052,-0.4582909,-0.9136825,9.479936,10.38089,49.18889,1002.032
1.179559708,-12.43418,-2.336038,2.281708,0.002140806,-0.4563282,-0.9101856,9.479936,10.38089,49.18889,1002.032
1.184568405,-14.70509,-2.759744,2.954202,0.008629628,-0.444821,-0.8971937,9.479936,10.38089,49.18889,1002.032
1.189573765,-17.28288,-3.243979,3.504425,0.0119715,-0.4423669,-0.8956275,9.479936,10.38089,49.18889,1002.032
1.194586277,-19.61516,-2.699214,3.504425,0.01952455,-0.4336457,-0.8880172,9.479936,10.38089,49.18889,1002.032
1.199590683,-21.57919,-2.578156,3.198745,0.02526982,-0.4312023,-0.8845066,9.846498,10.76267,49.59063,1002.032
1.204600334,-23.11358,-1.791273,2.40398,0.0237289,-0.4258806,-0.8833577,9.846498,10.76267,49.59063,1002.032
1.209608555,-23.91147,-1.609685,1.67035,0.02918432,-0.4310535,-0.8883082,9.846498,10.76267,49.59063,1002.032
1.214617252,-23.78872,-0.9438611,0.6310405,0.02971329,-0.4354828,-0.8865497,9.846498,10.76267,49.59063,1002.032
1.219626427,-23.42046,-0.3990962,-0.04145366,0.03267696,-0.4393429,-0.8866687,9.846498,10.76267,49.59063,1002.032
1.224639416,-21.88606,0.02460982,-0.7139478,0.02498882,-0.4418261,-0.8897185,9.846498,10.76267,49.59063,1002.032
1.229643822,-19.92204,-0.09644903,-1.203035,0.02659111,-0.4510388,-0.8914953,9.846498,10.76267,49.59063,1002.032
1.234652996,-17.65113,0.1456687,-1.508714,0.02364613,-0.4491531,-0.8904903,9.846498,10.76267,49.59063,1002.032
1.239661694,-15.07335,0.1456687,-1.692121,0.01935139,-0.4541065,-0.8902386,9.846498,10.76267,49.59063,1002.032
1.244670391,-12.74106,-0.03591961,-1.692121,0.01553712,-0.4560337,-0.8937113,9.846498,10.76267,49.59063,1002.032
1.249679565,-10.77703,-0.2780373,-1.630985,0.007200596,-0.4523552,-0.8893253,9.860263,9.998507,50.04051,1002.036
1.254688263,-8.567504,-0.8833316,-1.447578,0.007684579,-0.4447775,-0.8996035,9.860263,9.998507,50.04051,1002.036
1.259696961,-7.339987,-1.549155,-1.447578,0.005984086,-0.4352958,-0.8886878,9.860263,9.998507,50.04051,1002.036
1.264706135,-7.401362,-1.609685,-1.26417,0.001487066,-0.4245815,-0.8902445,9.860263,9.998507,50.04051,1002.036
1.269714832,-7.830994,-1.367567,-1.386442,-0.002933953,-0.4167135,-0.8952723,9.860263,9.998507,50.04051,1002.036
1.274723530,-9.058511,-1.488626,-1.630985,-0.002130816,-0.409021,-0.8896866,9.860263,9.998507,50.04051,1002.036
1.279732704,-10.83841,-1.185979,-1.9978,-0.0003475584,-0.3952302,-0.8934697,9.860263,9.998507,50.04051,1002.036
1.284741402,-12.80244,-0.9438611,-2.609159,0.003910834,-0.3918785,-0.8880166,9.860263,9.998507,50.04051,1002.036
1.289750099,-15.01197,-0.5806845,-3.220517,0.0002556331,-0.3999861,-0.89845,9.860263,9.998507,50.04051,1002.037
1.294759274,-16.79187,-0.2780373,-3.648468,0.005706266,-0.4051706,-0.9029204,9.860263,9.998507,50.04051,1002.037
1.299767971,-17.77388,-0.7017433,-3.954147,0.00358012,-0.4181236,-0.9140041,9.88831,8.924245,50.03004,1002.037
1.304776669,-17.77388,-0.4596256,-4.259826,0.007604988,-0.4273009,-0.915757,9.88831,8.924245,50.03004,1002.037
1.309785843,-17.52838,-0.8833316,-4.259826,0.009691043,-0.4395371,-0.9133198,9.88831,8.924245,50.03004,1002.037
1.314798355,-17.2215,-1.00439,-3.893011,0.008739172,-0.4379956,-0.9171142,9.88831,8.924245,50.03004,1002.037
1.319802761,-16.66912,-1.670214,-3.46506,0.004778473,-0.4407793,-0.9052448,9.88831,8.924245,50.03004,1002.037
1.324812412,-16.73049,-2.09392,-3.159381,0.0002769046,-0.4290663,-0.9077246,9.88831,8.924245,50.03004,1002.037
1.329820633,-16.85324,-2.699214,-2.425751,0.003585201,-0.4266929,-0.9027981,9.88831,8.924245,50.03004,1002.036
1.334829331,-16.91462,-2.820273,-1.936664,0.002864081,-0.4141434,-0.897042,9.88831,8.924245,50.03004,1002.036
1.339838982,-17.65113,-2.880803,-2.058936,0.009035029,-0.4072911,-0.8938403,9.88831,8.924245,50.03004,1002.036
1.344847202,-18.14214,-2.759744,-1.814393,0.01530926,-0.409277,-0.8885713,9.88831,8.924245,50.03004,1002.036
1.349855900,-17.89663,-2.336038,-1.875529,0.01525775,-0.4043528,-0.8903065,9.51658,8.537438,50.02025,1002.036
1.354865074,-17.28288,-1.670214,-1.692121,0.02116084,-0.4131406,-0.8867412,9.51658,8.537438,50.02025,1002.036
1.359873772,-16.11673,-1.06492,-1.630985,0.02357181,-0.4116187,-0.8876216,9.51658,8.537438,50.02025,1002.036
1.364882469,-14.58234,-0.7017433,-1.569849,0.02794003,-0.4100225,-0.8904029,9.51658,8.537438,50.02025,1002.036
1.369891644,-13.10932,-0.7622728,-1.630985,0.04244018,-0.407371,-0.8901656,9.51658,8.537438,50.02025,1002.036
1.374900341,-11.26804,-0.520155,-2.058936,0.03702614,-0.3995747,-0.892803,9.51658,8.537438,50.02025,1002.036
1.379909039,-9.181262,-0.2780373,-2.303479,0.03615887,-0.4048973,-0.8954161,9.51658,8.537438,50.02025,1002.036
1.384918213,-6.971732,-0.1569785,-3.037109,0.03732435,-0.4150121,-0.9005949,9.51658,8.537438,50.02025,1002.036
1.389923096,-4.700825,-0.03591961,-3.77074,0.03293212,-0.407075,-0.9085028,9.51658,8.537438,50.02025,1002.036
1.394931316,-2.675421,0.08513925,-4.137554,0.03105591,-0.408974,-0.9119561,9.51658,8.537438,50.02025,1002.036
1.399940968,-0.956897,-0.09644903,-4.687777,0.0266291,-0.4051582,-0.9108917,10.2906,8.174437,49.96341,1002.036
1.404949188,0.7002512,-0.2175079,-5.299135,0.01744727,-0.4052351,-0.9133834,10.2906,8.174437,49.96341,1002.036
1.409957886,1.31401,-0.3385668,-5.66595,0.01259805,-0.4022869,-0.9171609,10.2906,8.174437,49.96341,1002.036
1.414967537,1.805017,-0.4596256,-5.543678,0.009732092,-0.4007162,-0.9233747,10.2906,8.174437,49.96341,1002.036
1.419975758,1.436761,-0.7622728,-5.788222,0.004690721,-0.3896478,-0.9196374,10.2906,8.174437,49.96341,1002.036
1.424984455,0.2092443,-1.185979,-5.66595,0.0003038123,-0.3892698,-0.9177424,10.2906,8.174437,49.96341,1002.036
1.429993630,-1.202401,-1.367567,-5.543678,-0.0002256511,-0.3868608,-0.9166947,10.2906,8.174437,49.96341,1002.036
1.435002327,-3.166428,-1.791273,-5.360271,-0.003084535,-0.385778,-0.9229269,10.2906,8.174437,49.96341,1002.036
1.440011025,-6.173845,-1.791273,-5.115727,0.004076159,-0.3823952,-0.9169649,10.2906,8.174437,49.96341,1002.036
1.445020199,-8.935759,-1.912332,-4.565505,-0.00161432,-0.3862215,-0.9238909,10.2906,8.174437,49.96341,1002.036
1.450028896,-11.82042,-1.972861,-4.504369,0.005683987,-0.3885659,-0.923431,10.30954,7.415296,50.02135,1002.036
1.455037594,-14.39821,-1.912332,-4.320961,0.005251736,-0.3904666,-0.9259099,10.30954,7.415296,50.02135,1002.036
1.460046768,-15.99398,-2.820273,-4.137554,0.004428915,-0.4002256,-0.9267694,10.30954,7.415296,50.02135,1002.036
1.465055466,-17.16012,-3.122921,-3.281653,-0.001816258,-0.4067514,-0.9232324,10.30954,7.415296,50.02135,1002.036
1.470064163,-18.01939,-3.546626,-2.792566,-0.0070111,-0.4140774,-0.9264429,10.30954,7.415296,50.02135,1002.036
1.475073338,-18.32627,-3.970332,-2.181208,-0.007088096,-0.4152718,-0.9173595,10.30954,7.415296,50.02135,1002.036
1.480082035,-18.14214,-4.091391,-1.325306,-0.01403723,-0.4076926,-0.9118512,10.30954,7.415296,50.02135,1002.036
1.485090733,-18.01939,-3.849273,-0.652812,-0.0107365,-0.4068516,-0.9041,10.30954,7.415296,50.02135,1002.036
1.490099907,-18.38764,-3.546626,-0.2248612,-0.008085436,-0.3953089,-0.894987,10.30954,7.415296,50.02135,1002.036
1.492603779,-18.20351,-3.304509,-0.04145366,-0.00140599,-0.3883919,-0.8941805,10.30954,7.415296,50.02135,1002.036
1.497612953,-18.7559,-2.820273,0.2030897,-0.001111351,-0.3807641,-0.8861997,10.30437,7.410271,50.4133,1002.036
1.502621651,-19.2469,-2.275508,0.3864971,0.009595487,-0.3825135,-0.8880874,10.30437,7.410271,50.4133,1002.036
1.507630348,-19.12415,-1.791273,0.080818,0.0158187,-0.3775548,-0.8873597,10.30437,7.410271,50.4133,1002.036
1.512639523,-19.49241,-1.246508,-0.1025895,0.01914089,-0.3771672,-0.8810673,10.30437,7.410271,50.4133,1002.036
1.517648220,-18.87865,-0.8228022,-0.3471328,0.02057323,-0.3756825,-0.8809973,10.30437,7.410271,50.4133,1002.036
1.522656918,-17.89663,-0.8228022,-1.080763,0.02457056,-0.379878,-0.8868853,10.30437,7.410271,50.4133,1002.036
1.527665615,-16.42361,-0.6412139,-1.386442,0.01921739,-0.3779931,-0.8873444,10.30437,7.410271,50.4133,1002.036
1.532674790,-14.39821,-0.8833316,-1.936664,0.01246546,-0.3775122,-0.8912337,10.30437,7.410271,50.4133,1002.036
1.537683487,-11.69767,-1.00439,-2.425751,0.009624764,-0.3804241,-0.8937737,10.30437,7.410271,50.4133,1002.036
1.542692185,-8.935759,-1.125449,-2.73143,-0.000605125,-0.3802001,-0.8890563,10.30437,7.410271,50.4133,1002.036
1.547701359,-5.928342,-1.367567,-2.914838,-0.005863852,-0.3841459,-0.8906974,8.864776,6.690841,49.99122,1002.036
1.552711964,-2.920924,-1.851802,-3.037109,-0.01311469,-0.3837067,-0.8931514,8.864776,6.690841,49.99122,1002.036
1.557718754,-0.1590109,-1.912332,-3.281653,-0.01734608,-0.3844696,-0.9047523,8.864776,6.690841,49.99122,1002.036
1.562727928,2.664279,-1.488626,-3.037109,-0.02122775,-0.3875683,-0.9001017,8.864776,6.690841,49.99122,1002.036
1.567740440,4.812434,-1.488626,-3.281653,-0.02412906,-0.3835586,-0.9062229,8.864776,6.690841,49.99122,1002.036
1.572744846,6.408206,-1.488626,-3.220517,-0.01977524,-0.3819968,-0.907564,8.864776,6.690841,49.99122,1002.037
1.577754497,7.451596,-1.367567,-3.281653,-0.01253502,-0.3769088,-0.9116269,8.864776,6.690841,49.99122,1002.037
1.582762718,7.758475,-1.609685,-3.098245,-0.0114342,-0.3770831,-0.9241162,8.864776,6.690841,49.99122,1002.037
1.587767601,7.512971,-1.730744,-2.853702,-0.001563333,-0.3835751,-0.9324388,8.864776,6.690841,49.99122,1002.037
1.592776775,6.776461,-2.154449,-2.73143,-0.002100615,-0.3837089,-0.9271635,8.864776,6.690841,49.99122,1002.037
1.597785473,5.119313,-2.396567,-2.670295,0.003298498,-0.3839691,-0.9333691,9.966718,5.955066,49.93576,1002.037
1.602794170,3.278037,-2.638685,-2.486887,0.006151057,-0.3815336,-0.9313276,9.966718,5.955066,49.93576,1002.037
1.607803345,0.3933719,-2.578156,-2.242344,0.003676952,-0.3766448,-0.9330869,9.966718,5.955066,49.93576,1002.037
1.612815857,-2.491293,-2.638685,-2.364615,0.001166251,-0.3743678,-0.9277384,9.966718,5.955066,49.93576,1002.04
1.617820740,-5.314583,-2.517626,-2.120072,0.001675249,-0.3722827,-0.9329398,9.966718,5.955066,49.93576,1002.04
1.622829914,-8.260625,-2.336038,-2.303479,0.0002106139,-0.3783881,-0.9235758,9.966718,5.955066,49.93576,1002.04
1.627842426,-10.83841,-2.214979,-2.058936,-0.001663069,-0.3797762,-0.9279708,9.966718,5.955066,49.93576,1002.04
1.632847309,-13.10932,-1.851802,-1.569849,0.001177125,-0.3788848,-0.9226246,9.966718,5.955066,49.93576,1002.04
1.637856483,-14.95059,-1.670214,-1.203035,-0.004196227,-0.3810867,-0.9155514,9.966718,5.955066,49.93576,1002.04
1.642865181,-16.73049,-1.125449,-1.080763,-0.004222235,-0.3796348,-0.9150159,9.966718,5.955066,49.93576,1002.04
1.647873402,-18.26489,-1.06492,-0.8362195,-0.006614512,-0.3831309,-0.9132494,9.960687,5.949203,50.39304,1002.04
1.652883053,-19.12415,-0.7017433,-0.652812,0.0001657028,-0.385563,-0.9094341,9.960687,5.949203,50.39304,1002.036
1.657891273,-19.2469,-0.8833316,-0.5305403,-0.001082299,-0.3977106,-0.912791,9.960687,5.949203,50.39304,1002.036
1.662899971,-18.44902,-1.488626,-0.1637253,-5.012657E-05,-0.4041071,-0.9101416,9.960687,5.949203,50.39304,1002.036
1.667909622,-17.03737,-1.428097,-0.285997,-0.001258286,-0.3920756,-0.9034488,9.960687,5.949203,50.39304,1002.036
1.672917843,-14.88922,-0.7017433,-0.4694045,-0.003299853,-0.3938668,-0.8910431,9.960687,5.949203,50.39304,1002.036
1.677926540,-11.32942,1.174669,-1.753257,-0.005320995,-0.390561,-0.8875729,9.960687,5.949203,50.39304,1002.036
1.682935715,-7.094483,3.777435,-3.098245,-0.006603603,-0.3972389,-0.8950465,9.960687,5.949203,50.39304,1002.036
1.687944412,-2.859549,5.411729,-4.443233,0.00406209,-0.4006015,-0.8907496,9.960687,5.949203,50.39304,1002.036
1.692953110,-0.2203867,4.624846,-4.504369,0.006595745,-0.3972707,-0.905975,9.960687,5.949203,50.39304,1002.036
1.697962284,0.331996,1.901022,-3.220517,0.01443355,-0.3723639,-0.9011099,9.954654,5.943339,50.85032,1002.036
1.702970982,-0.6500177,-0.8228022,-2.120072,0.02663936,-0.356462,-0.8845336,9.954654,5.943339,50.85032,1002.036
1.707979679,-1.202401,-1.549155,-2.058936,0.02110917,-0.3433919,-0.8831273,9.954654,5.943339,50.85032,1002.036
1.712988853,-1.018273,-0.3385668,-2.73143,0.01877069,-0.3523116,-0.8791642,9.954654,5.943339,50.85032,1002.036
1.717997551,0.5161236,1.05361,-3.281653,0.01839656,-0.3796706,-0.8994285,9.954654,5.943339,50.85032,1002.036
1.723006248,3.707668,0.6299041,-2.975974,0.02300368,-0.409156,-0.9298173,9.954654,5.943339,50.85032,1002.036
1.728015423,7.697099,-0.8833316,-1.9978,0.02248256,-0.4117749,-0.9227144,9.954654,5.943339,50.85032,1002.036
1.733024120,11.07277,-1.791273,-1.080763,0.02754232,-0.3982109,-0.9149433,9.954654,5.943339,50.85032,1002.033
1.738032818,12.7913,-2.09392,-1.26417,0.03147496,-0.37444,-0.9058335,9.954654,5.943339,50.85032,1002.033
1.743041992,13.58918,-1.912332,-1.875529,0.02448741,-0.3573619,-0.9095741,9.954654,5.943339,50.85032,1002.033
1.748054504,13.71193,-1.246508,-2.609159,0.02286619,-0.3471852,-0.9072802,9.988734,4.87494,50.38257,1002.033
1.753059387,13.95744,-0.4596256,-3.587332,0.00491253,-0.3384246,-0.9172063,9.988734,4.87494,50.38257,1002.033
1.758068561,14.32569,0.5088453,-4.504369,0.006447376,-0.3392177,-0.923949,9.988734,4.87494,50.38257,1002.033
1.763077259,13.65056,0.8114924,-4.626641,-0.008064144,-0.3393725,-0.9264939,9.988734,4.87494,50.38257,1002.033
1.768085480,12.72992,0.8720219,-4.748912,-0.008312056,-0.3519361,-0.9322597,9.988734,4.87494,50.38257,1002.033
1.773095131,11.13415,0.6904336,-4.687777,-0.01562728,-0.3501371,-0.9303381,9.988734,4.87494,50.38257,1002.035
1.778103828,8.801865,0.8114924,-4.504369,-0.01639279,-0.360768,-0.9355547,9.988734,4.87494,50.38257,1002.035
1.783112049,6.408206,0.750963,-4.137554,-0.0207567,-0.3643731,-0.9304474,9.988734,4.87494,50.38257,1002.035
1.788117409,3.707668,0.4483158,-4.076418,-0.02261017,-0.3712654,-0.9292855,9.988734,4.87494,50.38257,1002.035
1.793126106,1.129882,0.750963,-3.77074,-0.02510371,-0.3674328,-0.9277217,9.988734,4.87494,50.38257,1002.035
1.798134804,-1.816159,1.05361,-3.526196,-0.02559302,-0.3674515,-0.9272465,10.34231,5.956858,50.39913,1002.035
1.803143978,-3.964314,1.05361,-3.648468,-0.02060921,-0.378658,-0.9252234,10.34231,5.956858,50.39913,1002.035
1.808152676,-5.560087,1.477316,-3.648468,-0.02395766,-0.3786039,-0.9295774,10.34231,5.956858,50.39913,1002.035
1.813161373,-6.11247,1.416787,-3.893011,-0.01547088,-0.3950463,-0.931084,10.34231,5.956858,50.39913,1002.035
1.818170547,-5.866966,1.356257,-3.648468,-0.02023095,-0.3999606,-0.9327572,10.34231,5.956858,50.39913,1002.035
1.823179245,-5.130455,0.9930807,-3.648468,-0.01629093,-0.4032841,-0.9342881,10.34231,5.956858,50.39913,1002.035
1.828187942,-4.148442,0.6299041,-3.648468,-0.007701948,-0.3953977,-0.9319853,10.34231,5.956858,50.39913,1002.035
1.833197117,-3.105052,0.2667275,-3.893011,-0.002397526,-0.3908374,-0.935606,10.34231,5.956858,50.39913,1002.035
1.838205814,-2.061662,-0.1569785,-3.648468,-0.0009106481,-0.3917457,-0.9375485,10.34231,5.956858,50.39913,1002.035
1.843214035,-1.079649,-0.8228022,-3.526196,0.008191383,-0.3847933,-0.9367179,10.34231,5.956858,50.39913,1002.035
1.848223686,-0.2203867,-1.488626,-3.587332,0.004743449,-0.3799302,-0.9380068,10.32638,6.330146,50.8601,1002.035
1.853232384,0.7616271,-1.972861,-3.281653,0.003280554,-0.3789643,-0.9384644,10.32638,6.330146,50.8601,1002.033
1.858240604,0.6388754,-2.517626,-3.037109,-0.0005314471,-0.3813909,-0.9414755,10.32638,6.330146,50.8601,1002.033
1.863250256,1.00713,-3.001862,-2.914838,-0.002058724,-0.3790652,-0.9375574,10.32638,6.330146,50.8601,1002.033
1.868258476,0.3933719,-3.486097,-2.670295,-0.01031445,-0.3782214,-0.9371224,10.32638,6.330146,50.8601,1002.033
1.873267174,-0.097635,-3.425568,-2.303479,-0.008875038,-0.3772245,-0.937071,10.32638,6.330146,50.8601,1002.033
1.878276348,-1.263776,-3.486097,-1.692121,-0.00310223,-0.3797629,-0.9294252,10.32638,6.330146,50.8601,1002.033
1.883285046,-2.307166,-3.667685,-1.080763,-0.007866601,-0.3826685,-0.9334247,10.32638,6.330146,50.8601,1002.033
1.888293743,-3.718811,-3.425568,-0.5305403,-0.001674936,-0.3793,-0.9274722,10.32638,6.330146,50.8601,1002.033
1.893302917,-5.130455,-3.062391,-0.1025895,0.006551258,-0.3832434,-0.9208178,10.32638,6.330146,50.8601,1002.032
1.898311615,-6.787604,-2.638685,0.2642255,0.009293457,-0.3714818,-0.9208251,8.512845,5.545732,49.97404,1002.032
1.903320312,-8.260625,-2.275508,0.3253613,0.01218844,-0.3719732,-0.9188946,8.512845,5.545732,49.97404,1002.032
1.908329487,-9.426765,-2.033391,0.3253613,0.01520814,-0.3721651,-0.9294445,8.512845,5.545732,49.97404,1002.032
1.913338184,-9.856397,-1.851802,0.447633,0.01481327,-0.3780145,-0.9301513,8.512845,5.545732,49.97404,1002.032
1.918346882,-9.610893,-1.791273,0.3864971,0.01969354,-0.381393,-0.9287923,8.512845,5.545732,49.97404,1002.032
1.923356056,-8.813007,-1.912332,0.5699046,0.01498322,-0.3887119,-0.931998,8.512845,5.545732,49.97404,1002.032
1.928364754,-8.015121,-1.609685,0.814448,0.01814431,-0.3806344,-0.9206095,8.512845,5.545732,49.97404,1002.032
1.933373451,-7.094483,-1.791273,0.9367197,0.01138278,-0.3801765,-0.9235387,8.512845,5.545732,49.97404,1002.03
1.938382626,-6.910356,-1.246508,0.6921763,0.01221093,-0.3779767,-0.9128762,8.512845,5.545732,49.97404,1002.03
1.943391323,-6.5421,-0.9438611,0.5699046,0.01109164,-0.365227,-0.9157652,8.512845,5.545732,49.97404,1002.03
1.948400021,-7.217235,-0.3385668,0.2642255,-0.001080867,-0.3640327,-0.9119903,10.70414,6.722815,50.41262,1002.03
1.953412533,-7.401362,-0.1569785,0.3253613,0.003238888,-0.364572,-0.9071652,10.70414,6.722815,50.41262,1002.03
1.958417892,-7.339987,0.327257,0.2642255,-0.001005611,-0.3699095,-0.9112522,10.70414,6.722815,50.41262,1002.03
1.963426590,-6.357973,0.8720219,0.447633,0.003515641,-0.3795561,-0.9134986,10.70414,6.722815,50.41262,1002.03
1.968434811,-5.744214,0.8114924,1.242399,-0.007244246,-0.3693525,-0.9180167,10.70414,6.722815,50.41262,1002.03
1.973444462,-7.033107,-0.4596256,1.976029,-0.003778426,-0.3516037,-0.9024134,10.70414,6.722815,50.41262,1002.032
1.978452682,-8.935759,-0.9438611,2.40398,-0.007371044,-0.3405256,-0.8981817,10.70414,6.722815,50.41262,1002.032
1.983461380,-9.856397,-0.6412139,2.0983,-0.01179558,-0.3372092,-0.8966557,10.70414,6.722815,50.41262,1002.032
1.988466740,-9.795021,0.327257,1.425806,-0.01737595,-0.3513717,-0.9001299,10.70414,6.722815,50.41262,1002.032
1.993475437,-8.813007,0.9930807,0.9367197,-0.02289926,-0.3674164,-0.9065583,10.72781,5.579498,50.8588,1002.032
1.998484135,-6.84898,1.05361,0.7533121,-0.02219935,-0.3785024,-0.9122589,10.72781,5.579498,50.8588,1002.032
2.003493309,-4.639449,1.235198,0.9367197,-0.01389715,-0.3852921,-0.9090756,10.72781,5.579498,50.8588,1002.032
2.008502007,-2.307166,1.658904,0.8755838,-0.00865736,-0.3803821,-0.9069176,10.72781,5.579498,50.8588,1002.032
2.013510704,-0.1590109,2.264199,0.8755838,-0.002795442,-0.3811921,-0.9102567,10.72781,5.579498,50.8588,1002.031
2.018519878,1.805017,2.627375,0.3864971,0.01081395,-0.3819005,-0.9130387,10.72781,5.579498,50.8588,1002.031
2.023528576,2.78703,2.203669,-0.04145366,0.01599412,-0.3660282,-0.9200741,10.72781,5.579498,50.8588,1002.031
2.028539181,2.848406,2.324728,-0.3471328,0.01163749,-0.3510851,-0.8940802,10.72781,5.579498,50.8588,1002.031
2.033546448,2.05052,2.445787,-0.8362195,0.007813093,-0.3454649,-0.9068758,10.72781,5.579498,50.8588,1002.031
2.038555145,1.743641,2.808964,-1.630985,0.01029199,-0.3503422,-0.9055966,10.72781,5.579498,50.8588,1002.031
2.043563366,1.436761,2.808964,-2.058936,0.009124506,-0.3567436,-0.9245905,10.36211,5.198555,50.39174,1002.031
2.048573017,1.00713,2.869493,-2.181208,0.009527976,-0.354912,-0.9192316,10.36211,5.198555,50.39174,1002.031
2.053581238,0.5161236,2.324728,-2.181208,0.005221616,-0.3583789,-0.9198844,10.36211,5.198555,50.39174,1002.031
2.058589935,-0.1590109,1.961552,-2.058936,0.00810548,-0.3553635,-0.9216647,10.36211,5.198555,50.39174,1002.031
2.063599110,-1.202401,2.082611,-1.753257,0.007195287,-0.3597795,-0.9213607,10.36211,5.198555,50.39174,1002.031
2.068607807,-1.632032,2.082611,-1.203035,0.005201187,-0.3634759,-0.9109491,10.36211,5.198555,50.39174,1002.031
2.073616505,-2.307166,2.022081,-0.9584911,0.003327752,-0.3638538,-0.916747,10.36211,5.198555,50.39174,1002.031
2.078625679,-2.859549,2.082611,-0.4694045,0.00520069,-0.3654962,-0.9081429,10.36211,5.198555,50.39174,1002.031
2.083634377,-3.841562,2.082611,-0.1637253,0.0003847992,-0.3634776,-0.9138774,10.36211,5.198555,50.39174,1002.031
2.088643074,-4.516697,2.264199,0.1419538,0.002740728,-0.3615831,-0.9099392,10.36211,5.198555,50.39174,1002.031
2.093652248,-4.823576,2.264199,0.3864971,0.008502661,-0.3596044,-0.9074072,9.993903,4.879965,49.99062,1002.031
2.098660946,-4.823576,2.385258,0.5087688,0.006459564,-0.3578657,-0.8996723,9.993903,4.879965,49.99062,1002.031
2.103671074,-4.7622,2.687905,0.5699046,0.006091448,-0.3621365,-0.9051238,9.993903,4.879965,49.99062,1002.031
2.108678818,-3.902938,2.627375,0.447633,0.005233769,-0.367436,-0.9086969,9.993903,4.879965,49.99062,1002.031
2.113687515,-2.859549,2.748434,0.6921763,0.00574227,-0.3673713,-0.9110922,9.993903,4.879965,49.99062,1002.031
2.118696213,-1.263776,2.748434,0.5699046,0.004770464,-0.3689065,-0.9087572,9.993903,4.879965,49.99062,1002.031
2.123705387,0.3933719,3.111611,0.3253613,0.002314553,-0.3680124,-0.9068242,9.993903,4.879965,49.99062,1002.031
2.128714085,2.111896,2.808964,0.01968217,0.008166133,-0.371876,-0.9049942,9.993903,4.879965,49.99062,1002.031
2.133723736,3.523541,2.687905,-0.3471328,0.004804788,-0.3657953,-0.9163265,9.993903,4.879965,49.99062,1002.031
2.138731957,4.812434,2.687905,-0.4694045,0.005628392,-0.3625968,-0.9065871,9.993903,4.879965,49.99062,1002.035
2.143740654,5.426192,2.566846,-0.652812,0.01102523,-0.3623577,-0.9132543,9.597993,5.182407,50.44488,1002.035
2.148749352,6.224079,2.687905,-0.7750837,0.008533716,-0.3600347,-0.9098259,9.597993,5.182407,50.44488,1002.035
2.153758526,6.530958,2.627375,-0.8362195,0.004795443,-0.3648082,-0.9167696,9.597993,5.182407,50.44488,1002.035
2.158767223,6.960589,2.203669,-0.7750837,0.00445259,-0.3735614,-0.9185473,9.597993,5.182407,50.44488,1002.035
2.163775444,6.899213,2.022081,-0.4694045,0.006868849,-0.3700077,-0.9227139,9.597993,5.182407,50.44488,1002.035
2.168785095,6.530958,1.840493,-0.1025895,-0.002480659,-0.3598866,-0.9228972,9.597993,5.182407,50.44488,1002.035
2.173793316,5.733071,1.840493,0.01968217,-0.004443951,-0.3650233,-0.9135011,9.597993,5.182407,50.44488,1002.035
2.178802013,4.444179,1.598375,0.1419538,-0.008345349,-0.3605975,-0.9172135,9.597993,5.182407,50.44488,1002.035
2.183811665,3.09391,1.901022,0.5087688,-0.002677857,-0.3527882,-0.9134996,9.597993,5.182407,50.44488,1002.035
2.188816071,1.682265,1.719434,0.5699046,-0.005026713,-0.3551705,-0.9174563,9.597993,5.182407,50.44488,1002.035
2.193824768,0.331996,1.840493,0.5087688,-0.004651773,-0.3523977,-0.9106203,9.987872,4.874103,50.44789,1002.035
2.198833942,-0.7113936,1.901022,0.5699046,-0.004147575,-0.3503242,-0.9153417,9.987872,4.874103,50.44789,1002.035
2.203842640,-1.447904,1.598375,0.3253613,-0.003278028,-0.345501,-0.912267,9.987872,4.874103,50.44789,1002.035
2.208851337,-1.938911,1.598375,0.2642255,-0.005733941,-0.3446068,-0.9103341,9.987872,4.874103,50.44789,1002.035
2.213860512,-1.693407,1.416787,0.2642255,-0.01289311,-0.3515194,-0.9116254,9.987872,4.874103,50.44789,1002.035
2.218869209,-1.018273,1.295728,0.2030897,-0.01041573,-0.3528668,-0.9150169,9.987872,4.874103,50.44789,1002.033
2.223877907,0.6388754,0.8720219,0.447633,-0.01169251,-0.3650835,-0.9154936,9.987872,4.874103,50.44789,1002.033
2.228887081,2.725655,0.9325513,0.3253613,-0.006762251,-0.3698563,-0.9170703,9.987872,4.874103,50.44789,1002.033
2.233895779,5.242064,0.750963,0.5699046,-0.006564022,-0.3825049,-0.9189911,9.987872,4.874103,50.44789,1002.033
2.238903999,8.12673,0.4483158,0.447633,0.001716715,-0.3888413,-0.9143493,9.987872,4.874103,50.44789,1002.033
2.243913651,10.70452,0.750963,0.447633,0.006190498,-0.3965827,-0.9146017,9.197429,5.933893,50.38086,1002.033
2.248921871,13.22093,0.750963,0.2030897,0.005334063,-0.3968313,-0.9251902,9.197429,5.933893,50.38086,1002.033
2.253930569,14.93945,1.05361,0.5087688,0.01530184,-0.3810264,-0.9264172,9.197429,5.933893,50.38086,1002.033
2.258940220,15.49183,1.05361,0.080818,0.02177346,-0.3614838,-0.9227298,9.197429,5.933893,50.38086,1002.037
2.263948441,14.93945,1.174669,0.01968217,0.02308887,-0.3481649,-0.9274963,9.197429,5.933893,50.38086,1002.037
2.268957138,13.52781,1.356257,-0.4082687,0.02640978,-0.3432372,-0.9272776,9.197429,5.933893,50.38086,1002.037
2.273966312,11.62515,1.174669,-0.2248612,0.03079061,-0.3390867,-0.9347666,9.197429,5.933893,50.38086,1002.037
2.278975010,9.476999,1.235198,-0.5305403,0.03272793,-0.3420889,-0.9305381,9.197429,5.933893,50.38086,1002.037
2.283983707,7.39022,1.174669,-0.4082687,0.02662819,-0.351799,-0.9367308,9.197429,5.933893,50.38086,1002.037
2.288992882,5.733071,1.235198,-0.5916762,0.02626462,-0.3570684,-0.9412593,9.197429,5.933893,50.38086,1002.037
2.294001579,4.260051,1.356257,-0.285997,0.01993737,-0.3562194,-0.9398449,9.588094,5.56156,50.44858,1002.037
2.299011707,3.646292,1.356257,-0.4082687,0.01959931,-0.3649611,-0.9421027,9.588094,5.56156,50.44858,1002.035
2.304019451,2.541527,1.235198,-0.285997,0.01330539,-0.3650416,-0.9426455,9.588094,5.56156,50.44858,1002.035
2.309028149,1.743641,1.11414,-0.1637253,0.009575717,-0.3738328,-0.9449369,9.588094,5.56156,50.44858,1002.035
2.314036846,1.620889,1.356257,-0.1025895,0.01045965,-0.368975,-0.9433023,9.588094,5.56156,50.44858,1002.035
2.319046021,1.068506,1.11414,-0.04145366,0.009606274,-0.3762834,-0.9445494,9.588094,5.56156,50.44858,1002.035
2.324054718,0.7002512,0.9930807,0.1419538,0.003063387,-0.3653515,-0.9360265,9.588094,5.56156,50.44858,1002.035
2.329063416,-0.2203867,0.8720219,0.2030897,0.009768843,-0.3598864,-0.9357556,9.588094,5.56156,50.44858,1002.035
2.334072590,-1.50928,0.9325513,0.080818,0.01002461,-0.354371,-0.9211283,9.588094,5.56156,50.44858,1002.035
2.339081287,-3.596059,0.9325513,-0.1637253,0.01178111,-0.3421589,-0.9201667,9.588094,5.56156,50.44858,1002.033
2.344089985,-5.621462,0.9325513,-0.5305403,0.0116253,-0.3324371,-0.9183568,10.34145,5.95602,50.46445,1002.033
2.349099159,-7.217235,0.6904336,-0.652812,0.01315738,-0.3347513,-0.922755,10.34145,5.95602,50.46445,1002.033
2.354107857,-7.892369,0.327257,-1.080763,0.006967993,-0.3386191,-0.9282458,10.34145,5.95602,50.46445,1002.033
2.359116078,-7.524114,-0.09644903,-0.9584911,0.0006922632,-0.3426943,-0.9250965,10.34145,5.95602,50.46445,1002.033
2.364125729,-6.84898,-0.520155,-0.5305403,0.001802712,-0.3524365,-0.9254566,10.34145,5.95602,50.46445,1002.033
2.369134426,-5.437335,-0.8228022,-0.2248612,-0.002174151,-0.352735,-0.9154148,10.34145,5.95602,50.46445,1002.033
2.374142647,-3.841562,-0.7622728,0.2642255,-0.004568702,-0.3557318,-0.9141099,10.34145,5.95602,50.46445,1002.033
2.379152298,-2.24579,-0.8833316,0.5087688,-0.003084844,-0.3591714,-0.9123048,10.34145,5.95602,50.46445,1002.039
2.384160519,-1.263776,-0.4596256,0.3864971,0.004127869,-0.3586925,-0.9074137,10.34145,5.95602,50.46445,1002.039
2.389165402,-0.2203867,0.08513925,0.2642255,0.0006301906,-0.3514248,-0.9071701,10.34145,5.95602,50.46445,1002.039
2.394174576,0.6388754,0.3877864,0.1419538,0.008044652,-0.3590431,-0.9107537,9.187528,6.313045,50.38455,1002.039
2.399183273,1.498137,0.8720219,-0.04145366,0.01238032,-0.3630777,-0.9026979,9.187528,6.313045,50.38455,1002.039
2.404191971,1.620889,0.9325513,-0.2248612,0.01585071,-0.3643534,-0.9084798,9.187528,6.313045,50.38455,1002.039
2.409201145,1.989144,1.295728,-0.4082687,0.02031387,-0.3665675,-0.915249,9.187528,6.313045,50.38455,1002.039
2.414209843,2.05052,1.356257,-0.3471328,0.02705419,-0.3655618,-0.9122643,9.187528,6.313045,50.38455,1002.039
2.419218540,2.418775,1.235198,-0.4694045,0.02465104,-0.364541,-0.9156116,9.187528,6.313045,50.38455,1002.037
2.424227715,2.418775,1.174669,-0.8362195,0.02563244,-0.3629828,-0.9189066,9.187528,6.313045,50.38455,1002.037
2.429236412,2.725655,1.295728,-1.203035,0.02461717,-0.3560408,-0.9239376,9.187528,6.313045,50.38455,1002.037
2.434244633,2.971158,1.295728,-1.814393,0.01540706,-0.3541665,-0.9263554,9.187528,6.313045,50.38455,1002.037
2.439254284,3.339413,1.174669,-2.486887,0.007537109,-0.345476,-0.9270598,9.187528,6.313045,50.38455,1002.037
2.444262982,3.523541,1.05361,-3.098245,0.0002667988,-0.3365021,-0.9392799,10.35135,5.576869,50.46076,1002.037
2.449271202,3.523541,0.9325513,-3.648468,-0.004723299,-0.3313682,-0.9324045,10.35135,5.576869,50.46076,1002.037
2.454280853,2.971158,0.5693747,-4.382098,-0.01115384,-0.3216809,-0.9330575,10.35135,5.576869,50.46076,1002.037
2.459289074,1.743641,0.327257,-4.871184,-0.008354329,-0.3107913,-0.9374219,10.35135,5.576869,50.46076,1002.042
2.464297772,-0.2203867,0.5088453,-5.421407,-0.006049674,-0.3029624,-0.9366219,10.35135,5.576869,50.46076,1002.042
2.469306946,-2.920924,0.6904336,-5.543678,0.005351471,-0.2912231,-0.930302,10.35135,5.576869,50.46076,1002.042
2.474315643,-6.051094,0.750963,-5.543678,0.02074817,-0.2811596,-0.9331379,10.35135,5.576869,50.46076,1002.042
2.479324341,-9.672269,0.1456687,-5.604814,0.02699007,-0.2781752,-0.9315241,10.35135,5.576869,50.46076,1002.042
2.484333515,-13.9072,-0.520155,-5.604814,0.03323627,-0.2771997,-0.9275842,10.35135,5.576869,50.46076,1002.042
2.489342213,-17.65113,-0.7622728,-5.604814,0.03224528,-0.278781,-0.9233292,10.35135,5.576869,50.46076,1002.042
2.494350910,-20.47442,-0.03591961,-5.66595,0.02738651,-0.2854467,-0.9130576,9.588094,5.56156,50.44858,1002.042
2.499360085,-21.39506,1.658904,-6.155036,0.02634178,-0.3092212,-0.9202183,9.588094,5.56156,50.44858,1002.046
2.504368782,-19.67653,4.503788,-6.827531,0.02492038,-0.3428397,-0.9243936,9.588094,5.56156,50.44858,1002.046
2.509377480,-16.11673,6.622318,-7.255482,0.02483484,-0.3676332,-0.9291815,9.588094,5.56156,50.44858,1002.046
2.514386654,-12.61831,6.803906,-6.644124,0.03351957,-0.3881435,-0.9442951,9.588094,5.56156,50.44858,1002.046
2.519395352,-10.77703,4.988023,-4.504369,0.03727351,-0.3878754,-0.9327176,9.588094,5.56156,50.44858,1002.046
2.524404049,-9.795021,2.808964,-2.486887,0.04496139,-0.3864024,-0.9282647,9.588094,5.56156,50.44858,1002.046
2.529413223,-8.322001,3.293199,-1.26417,0.04661162,-0.3774741,-0.9125336,9.588094,5.56156,50.44858,1002.046
2.534421921,-6.173845,5.774906,-0.9584911,0.04582693,-0.388151,-0.9158301,9.588094,5.56156,50.44858,1002.046
2.539430618,-3.043676,8.559259,-1.203035,0.04289462,-0.4113278,-0.9287519,9.588094,5.56156,50.44858,1002.044
2.544439793,0.7616271,9.4672,-0.3471328,0.04551443,-0.4364167,-0.9604337,10.35608,5.192692,50.84902,1002.044
2.549448490,5.364816,8.801376,0.8755838,0.04974783,-0.4455981,-0.9823657,10.35608,5.192692,50.84902,1002.044
2.554457188,8.740489,7.4092,1.976029,0.04553105,-0.4272905,-0.9745014,10.35608,5.192692,50.84902,1002.044
2.559466362,11.19552,6.864436,2.220572,0.04002055,-0.4121539,-0.9778214,10.35608,5.192692,50.84902,1002.044
2.564475059,12.23891,6.743377,1.609214,0.03336201,-0.3939278,-0.9680612,10.35608,5.192692,50.84902,1002.044
2.569483280,12.91405,7.46973,0.3253613,0.02269276,-0.3855258,-0.9788934,10.35608,5.192692,50.84902,1002.044
2.574492931,12.17754,8.49873,-1.019627,0.007368454,-0.3657793,-0.9768448,10.35608,5.192692,50.84902,1002.044
2.579501152,10.95002,9.043494,-2.058936,0.004105601,-0.3685485,-0.9856299,10.35608,5.192692,50.84902,1002.044
2.584509849,8.556361,9.285612,-2.609159,0.007904703,-0.3600954,-0.9895971,10.35608,5.192692,50.84902,1002.044
2.589515209,4.260051,8.982965,-3.037109,0.009081749,-0.3440798,-0.9846523,10.35608,5.192692,50.84902,1002.044
2.594523907,-1.141025,8.982965,-3.220517,0.01401476,-0.3293058,-0.9662653,10.36211,5.198555,50.39174,1002.044
2.599532604,-7.524114,9.164554,-3.46506,0.02441656,-0.3141199,-0.9617457,10.36211,5.198555,50.39174,1002.044
2.604541778,-14.09133,9.043494,-4.382098,0.02593067,-0.2934035,-0.948931,10.36211,5.198555,50.39174,1002.044
2.609550476,-20.35167,9.4672,-4.810049,0.02688329,-0.2919143,-0.9493458,10.36211,5.198555,50.39174,1002.044
2.614559173,-26.18237,9.52773,-5.360271,0.03060945,-0.2876747,-0.9405005,10.36211,5.198555,50.39174,1002.044
2.619568348,-30.54006,9.769848,-5.604814,0.03491886,-0.2912675,-0.9305062,10.36211,5.198555,50.39174,1002.042
2.624577045,-33.4861,9.830377,-5.237999,0.03809539,-0.3067315,-0.935389,10.36211,5.198555,50.39174,1002.042
2.629585743,-34.16124,9.769848,-4.687777,0.04160395,-0.3185162,-0.9305189,10.36211,5.198555,50.39174,1002.042
2.634594917,-32.74959,9.890906,-4.076418,0.04194711,-0.3363696,-0.9393633,10.36211,5.198555,50.39174,1002.042
2.639603615,-29.49667,9.406671,-3.281653,0.04627571,-0.3399164,-0.931289,10.36211,5.198555,50.39174,1002.042
2.644611835,-25.62999,8.861906,-2.303479,0.04736747,-0.3476842,-0.9325352,8.893172,5.163348,50.82566,1002.042
2.649621487,-20.71992,8.49873,-1.753257,0.0459417,-0.3516771,-0.9298176,8.893172,5.163348,50.82566,1002.042
2.654629707,-15.80985,7.832906,-0.8973553,0.04971074,-0.338753,-0.9369784,8.893172,5.163348,50.82566,1002.042
2.659638405,-10.47016,7.530259,0.080818,0.04733766,-0.3422031,-0.937132,8.893172,5.163348,50.82566,1002.041
2.664648056,-5.80559,7.167083,0.5087688,0.04723387,-0.3353852,-0.9363931,8.893172,5.163348,50.82566,1002.041
2.669656277,-1.018273,7.772377,0.9978555,0.04681196,-0.3342324,-0.9440412,8.893172,5.163348,50.82566,1002.041
2.674664974,3.216661,8.256612,1.120127,0.04509582,-0.338271,-0.9600675,8.893172,5.163348,50.82566,1002.041
2.679674148,7.512971,9.225082,1.303535,0.03955684,-0.3498101,-0.9711295,8.893172,5.163348,50.82566,1002.041
2.684682846,11.37965,9.951436,1.364671,0.03297131,-0.3549873,-0.983401,8.893172,5.163348,50.82566,1002.041
2.689691544,15.24633,10.85938,1.364671,0.03522677,-0.3703502,-0.9930938,8.893172,5.163348,50.82566,1002.041
2.694700718,19.29714,11.28308,1.058991,0.02881797,-0.3781318,-1.018916,8.524962,4.844759,50.42454,1002.041
2.699709415,22.61143,11.88838,1.181263,0.03434687,-0.3866619,-1.026397,8.524962,4.844759,50.42454,1002.045
2.704718113,24.51409,12.43314,0.6921763,0.03207856,-0.3928891,-1.032901,8.524962,4.844759,50.42454,1002.045
2.709727287,25.68023,12.91738,0.2642255,0.03679216,-0.3820288,-1.034846,8.524962,4.844759,50.42454,1002.045
2.714735985,24.57546,13.76479,-0.5916762,0.04099498,-0.3707338,-1.034858,8.524962,4.844759,50.42454,1002.045
2.719744682,21.87492,14.73326,-1.569849,0.05005104,-0.3558151,-1.040451,8.524962,4.844759,50.42454,1002.045
2.724753857,16.96486,14.73326,-2.486887,0.06290495,-0.3374942,-1.042997,8.524962,4.844759,50.42454,1002.045
2.729762554,10.15213,14.85432,-3.098245,0.06026722,-0.3254263,-1.038719,8.524962,4.844759,50.42454,1002.045
2.734771252,1.682265,14.24903,-3.648468,0.06280259,-0.2969984,-1.041457,8.524962,4.844759,50.42454,1002.045
2.739780426,-8.137873,13.22003,-3.893011,0.06163938,-0.287383,-1.035817,8.524962,4.844759,50.42454,1002.045
2.744789123,-18.32627,12.5542,-4.19869,0.06589827,-0.2820109,-1.03317,8.154096,4.45879,50.34943,1002.045
2.749797821,-27.83952,11.70679,-4.19869,0.0606259,-0.2829607,-1.03758,8.154096,4.45879,50.34943,1002.045
2.754806995,-35.75701,10.85938,-3.587332,0.05686463,-0.2837512,-1.047736,8.154096,4.45879,50.34943,1002.045
2.759815693,-41.40359,10.4962,-2.853702,0.05456883,-0.2945876,-1.045287,8.154096,4.45879,50.34943,1002.045
2.764823914,-45.39302,10.55673,-1.875529,0.05694394,-0.292647,-1.043269,8.154096,4.45879,50.34943,1002.045
2.769833565,-47.66393,11.58573,-1.203035,0.05696085,-0.2921016,-1.04565,8.154096,4.45879,50.34943,1002.045
2.774842262,-48.33906,12.37261,-0.5305403,0.05980635,-0.2891783,-1.043591,8.154096,4.45879,50.34943,1002.045
2.779852867,-48.03218,13.76479,0.01968217,0.06448636,-0.2783986,-1.042176,8.154096,4.45879,50.34943,1002.043
2.784860134,-46.43641,15.33856,-0.4082687,0.06687409,-0.2739038,-1.044865,8.154096,4.45879,50.34943,1002.043
2.789868355,-43.98137,16.97285,-0.4082687,0.07847342,-0.2652221,-1.053555,7.748286,5.140384,50.80739,1002.043
2.794873238,-41.71047,17.6992,-0.285997,0.08747873,-0.2519397,-1.052004,7.748286,5.140384,50.80739,1002.043
2.799882412,-40.72845,18.42556,-0.4082687,0.0994548,-0.243005,-1.050591,7.748286,5.140384,50.80739,1002.043
2.804891109,-40.42157,19.21244,-0.8973553,0.1149692,-0.2417453,-1.052799,7.748286,5.140384,50.80739,1002.043
2.809899807,-40.23745,20.05985,-0.8362195,0.1198267,-0.2401304,-1.056056,7.748286,5.140384,50.80739,1002.043
2.814908981,-39.56231,21.08885,-0.7139478,0.1186635,-0.2485408,-1.072724,7.748286,5.140384,50.80739,1002.043
2.819917679,-38.88718,21.63362,-0.5305403,0.1203494,-0.2590672,-1.080796,7.748286,5.140384,50.80739,1002.047
2.824926376,-38.21204,21.93626,-0.2248612,0.1206097,-0.2725763,-1.087554,7.748286,5.140384,50.80739,1002.047
2.829935551,-37.35278,22.48103,0.3864971,0.1088238,-0.2881215,-1.098347,7.748286,5.140384,50.80739,1002.047
2.834944248,-35.75701,22.35997,0.8755838,0.1108169,-0.2884659,-1.103146,7.748286,5.140384,50.80739,1002.047
2.839952946,-34.71362,21.8152,1.731485,0.09133342,-0.2778904,-1.108213,6.71355,2.896091,51.6178,1002.047
2.844962120,-35.14325,20.96779,2.709659,0.0842305,-0.2620989,-1.09903,6.71355,2.896091,51.6178,1002.047
2.849970818,-37.47553,20.3625,3.443289,0.0736769,-0.2429653,-1.088791,6.71355,2.896091,51.6178,1002.047
2.854979038,-40.6057,20.48356,4.115783,0.06771674,-0.2322953,-1.089402,6.71355,2.896091,51.6178,1002.047
2.859988689,-45.14751,21.27044,4.971685,0.06941415,-0.2166914,-1.087351,6.71355,2.896091,51.6178,1002.045
2.864996910,-50.79409,22.48103,5.3385,0.07114365,-0.207068,-1.080242,6.71355,2.896091,51.6178,1002.045
2.870005608,-57.60682,23.81268,5.216228,0.07160038,-0.2030893,-1.082969,6.71355,2.896091,51.6178,1002.045
2.875014782,-64.72642,24.96274,5.032821,0.07306655,-0.2005138,-1.087662,6.71355,2.896091,51.6178,1002.045
2.880023479,-71.29363,26.41544,4.849413,0.07838485,-0.1979393,-1.089917,6.71355,2.896091,51.6178,1002.045
2.885032177,-78.16773,27.02074,4.421463,0.08914797,-0.1950105,-1.103639,6.71355,2.896091,51.6178,1002.045
2.890041351,-84.67358,27.20232,4.360326,0.0885973,-0.191138,-1.102536,6.729533,1.810103,52.52188,1002.045
2.895050049,-90.07465,27.02074,4.054647,0.1034948,-0.1821264,-1.102533,6.729533,1.810103,52.52188,1002.045
2.900058746,-94.30959,27.44444,3.993511,0.1107073,-0.1730668,-1.109328,6.729533,1.810103,52.52188,1002.044
2.905067921,-97.86938,27.74709,3.443289,0.1157655,-0.1559729,-1.106228,6.729533,1.810103,52.52188,1002.044
2.907572746,-100.0789,27.92868,3.321017,0.1230138,-0.156923,-1.102832,6.729533,1.810103,52.52188,1002.044
2.912581444,-104.0683,27.50497,2.954202,0.1252664,-0.1461902,-1.100961,6.729533,1.810103,52.52188,1002.044
2.917590141,-108.0578,27.02074,2.526251,0.136756,-0.1453441,-1.088328,6.729533,1.810103,52.52188,1002.044
2.922598362,-112.3541,26.83915,2.220572,0.1515932,-0.1379917,-1.080221,6.729533,1.810103,52.52188,1002.044
2.927608013,-117.3255,26.17332,1.853757,0.1667973,-0.1218285,-1.072736,6.729533,1.810103,52.52188,1002.044
2.932616234,-122.6039,25.56803,1.67035,0.1775149,-0.1004782,-1.060291,6.729533,1.810103,52.52188,1002.044
2.937624931,-128.6801,24.90221,1.364671,0.1873221,-0.08455407,-1.046139,6.729533,1.810103,52.52188,1002.044
2.942634106,-135.5542,24.29691,1.181263,0.1940778,-0.06144735,-1.027898,5.668227,-1.177017,52.01737,1002.047
2.947642803,-142.7965,23.63109,0.8755838,0.1843907,-0.04002172,-1.010837,5.668227,-1.177017,52.01737,1002.047
2.952651501,-149.732,23.08632,0.080818,0.1710628,-0.02666921,-1.00565,5.668227,-1.177017,52.01737,1002.047
2.957660675,-155.3172,22.11785,0.2642255,0.1623259,-0.0318821,-0.9972813,5.668227,-1.177017,52.01737,1002.047
2.962669373,-159.3066,21.63362,0.5699046,0.1478977,-0.04395176,-0.9916297,5.668227,-1.177017,52.01737,1002.047
2.967678070,-160.5341,21.33097,0.814448,0.1324469,-0.04960187,-0.9895875,5.668227,-1.177017,52.01737,1002.047
2.972687244,-159.6135,20.72568,0.6921763,0.1161128,-0.06768033,-0.9788969,5.668227,-1.177017,52.01737,1002.047
2.977695942,-157.0971,21.14938,0.814448,0.1074893,-0.07968808,-0.9722273,5.668227,-1.177017,52.01737,1002.047
2.982704639,-152.4325,22.11785,0.5699046,0.1045898,-0.08778898,-0.9619917,5.668227,-1.177017,52.01737,1002.049
2.987713814,-146.4791,22.96526,0.080818,0.09913962,-0.08058417,-0.9603273,5.668227,-1.177017,52.01737,1002.049
2.992718697,-140.9552,23.63109,0.080818,0.1049094,-0.08565378,-0.9489339,3.580873,-6.335187,51.53999,1002.049
2.997726917,-135.1859,24.05479,-0.4082687,0.1105125,-0.07648461,-0.9408444,3.580873,-6.335187,51.53999,1002.049
3.002736568,-129.5393,23.69162,-0.7750837,0.1141238,-0.06192019,-0.9349709,3.580873,-6.335187,51.53999,1002.049
3.007744789,-123.7086,23.14685,-0.8973553,0.1206093,-0.04436337,-0.9299175,3.580873,-6.335187,51.53999,1002.049
3.012753487,-118.7986,22.05732,-0.8973553,0.1309757,-0.0267384,-0.9253054,3.580873,-6.335187,51.53999,1002.049
3.017762661,-114.5636,21.45203,-1.26417,0.1513289,-0.003863679,-0.9093484,3.580873,-6.335187,51.53999,1002.049
3.022771358,-111.6176,21.33097,-1.936664,0.1524963,0.03974556,-0.8942244,3.580873,-6.335187,51.53999,1002.047
3.027780056,-109.8377,20.60462,-3.648468,0.1456229,0.07108513,-0.8815648,3.580873,-6.335187,51.53999,1002.047
3.032789230,-108.917,20.12038,-4.993456,0.1345782,0.08312888,-0.8610295,3.580873,-6.335187,51.53999,1002.047
3.037797928,-107.5668,20.42303,-5.849358,0.1486885,0.08095269,-0.863382,3.580873,-6.335187,51.53999,1002.047
3.042806625,-105.7255,20.05985,-6.338444,0.1602644,0.09159707,-0.8724782,4.143071,-12.56678,50.17859,1002.047
3.047815800,-103.4546,19.03085,-7.010938,0.1515214,0.1005037,-0.8827928,4.143071,-12.56678,50.17859,1002.047
3.052824497,-101.9816,16.42809,-7.500025,0.1633937,0.08863944,-0.8898594,4.143071,-12.56678,50.17859,1002.047
3.057833195,-99.28103,14.00691,-7.500025,0.1720622,0.08864018,-0.8844923,4.143071,-12.56678,50.17859,1002.047
3.062842369,-97.25562,12.85685,-8.294791,0.188815,0.09243346,-0.8692949,4.143071,-12.56678,50.17859,1002.046
3.067851067,-96.45774,12.49367,-8.417063,0.195999,0.0928432,-0.8615237,4.143071,-12.56678,50.17859,1002.046
3.072859764,-96.70324,11.64626,-8.478198,0.1987796,0.09510593,-0.852282,4.143071,-12.56678,50.17859,1002.046
3.077868938,-97.01012,10.4962,-8.050247,0.205466,0.1111261,-0.8645832,4.143071,-12.56678,50.17859,1002.046
3.082877636,-97.62388,8.619788,-7.744568,0.2166119,0.1373962,-0.8533885,4.143071,-12.56678,50.17859,1002.046
3.087886333,-98.17626,7.348671,-7.683433,0.2181641,0.1571946,-0.8430107,4.143071,-12.56678,50.17859,1002.046
3.092895508,-98.05351,6.259141,-7.744568,0.2239091,0.1682188,-0.8511863,3.219045,-18.13762,49.19257,1002.046
3.097904205,-98.11488,5.532788,-7.744568,0.2302911,0.1936037,-0.8467971,3.219045,-18.13762,49.19257,1002.046
3.102915287,-97.93076,4.685376,-7.744568,0.2402059,0.1986807,-0.8282517,3.219045,-18.13762,49.19257,1002.05
3.107922077,-96.02811,4.322199,-7.072074,0.2388672,0.2255425,-0.8291644,3.219045,-18.13762,49.19257,1002.05
3.112930775,-93.57307,3.414258,-7.316617,0.2418339,0.2242136,-0.833031,3.219045,-18.13762,49.19257,1002.05
3.117938995,-89.27676,3.051081,-6.338444,0.2468785,0.2166867,-0.8419189,3.219045,-18.13762,49.19257,1002.05
3.122948647,-83.75294,3.111611,-5.360271,0.2436818,0.210038,-0.8518119,3.219045,-18.13762,49.19257,1002.05
3.127956867,-78.47461,2.687905,-3.709604,0.2319052,0.2115315,-0.8398533,3.219045,-18.13762,49.19257,1002.05
3.132965565,-74.85344,3.051081,-1.875529,0.2201929,0.2212561,-0.8453596,3.219045,-18.13762,49.19257,1002.05
3.137975216,-71.66189,0.327257,0.01968217,0.2247275,0.2448111,-0.8473039,3.219045,-18.13762,49.19257,1002.05
3.142983437,-69.82062,-0.8228022,0.1419538,0.2289871,0.2712396,-0.826558,1.795559,-21.43747,47.82967,1002.048
3.147992134,-69.02273,-1.428097,-0.2248612,0.2200997,0.2777804,-0.8196657,1.795559,-21.43747,47.82967,1002.048
3.153001308,-67.18145,-1.307038,-0.5916762,0.2208521,0.2658108,-0.8292435,1.795559,-21.43747,47.82967,1002.048
3.158010006,-64.29679,-1.912332,0.1419538,0.2155835,0.242806,-0.8508297,1.795559,-21.43747,47.82967,1002.048
3.163018703,-61.04387,-3.425568,1.67035,0.213422,0.232292,-0.861821,1.795559,-21.43747,47.82967,1002.048
3.168027878,-58.28195,-5.180921,3.504425,0.2168522,0.2610607,-0.8578113,1.795559,-21.43747,47.82967,1002.048
3.173036575,-57.05443,-6.815216,4.666006,0.2080635,0.2873785,-0.8405558,1.795559,-21.43747,47.82967,1002.048
3.178046703,-56.99306,-7.965275,5.277364,0.203704,0.3103916,-0.8253064,1.795559,-21.43747,47.82967,1002.048
3.183054447,-57.9137,-7.965275,5.3385,0.1921531,0.3314623,-0.8150034,1.795559,-21.43747,47.82967,1002.046
3.188063145,-58.1592,-8.025805,5.093956,0.1859755,0.3367091,-0.8340819,1.514741,-24.39253,46.03084,1002.046
3.193067551,-57.23856,-9.054805,5.216228,0.1861672,0.3265686,-0.8387904,1.514741,-24.39253,46.03084,1002.046
3.198077202,-55.45866,-10.08381,5.583043,0.189728,0.3224812,-0.8494835,1.514741,-24.39253,46.03084,1002.046
3.203086853,-53.12638,-10.6891,5.583043,0.176566,0.3281554,-0.8498718,1.514741,-24.39253,46.03084,1002.046
3.208094120,-51.77611,-12.26287,5.460772,0.1833515,0.3277552,-0.8493428,1.514741,-24.39253,46.03084,1002.046
3.213103771,-50.91685,-13.83663,5.888722,0.1832091,0.3334707,-0.8433607,1.514741,-24.39253,46.03084,1002.046
3.218111992,-50.36446,-15.47092,6.377809,0.1837357,0.3295407,-0.8420637,1.514741,-24.39253,46.03084,1002.046
3.223120689,-50.05758,-17.28681,6.80576,0.1866077,0.3330325,-0.8433454,1.514741,-24.39253,46.03084,1002.045
3.228129864,-50.24171,-19.58693,6.866896,0.1846447,0.3289058,-0.8353523,1.514741,-24.39253,46.03084,1002.045
3.233138561,-50.91685,-20.91857,7.478254,0.1881323,0.3195948,-0.8318297,1.514741,-24.39253,46.03084,1002.045
3.238147259,-52.69675,-21.82651,8.089612,0.1890642,0.3149767,-0.8219061,2.356844,-26.9572,45.16854,1002.045
3.243156433,-55.27453,-22.67393,8.578699,0.1903241,0.317057,-0.8059586,2.356844,-26.9572,45.16854,1002.045
3.248165131,-57.9137,-23.09763,8.884378,0.2007921,0.3187724,-0.7894579,2.356844,-26.9572,45.16854,1002.045
3.253173828,-60.92111,-23.76345,9.373465,0.2056373,0.3188432,-0.7894096,2.356844,-26.9572,45.16854,1002.045
3.258183003,-62.88514,-24.36875,9.679144,0.2214532,0.3166419,-0.7691635,2.356844,-26.9572,45.16854,1002.045
3.263191700,-63.86716,-25.03457,10.2905,0.22393,0.3132741,-0.7697489,2.356844,-26.9572,45.16854,1002.041
3.268201828,-63.68303,-26.42675,10.963,0.2291774,0.3197166,-0.7704154,2.356844,-26.9572,45.16854,1002.041
3.273209572,-62.21,-28.12157,11.20754,0.2440379,0.324096,-0.7604991,2.356844,-26.9572,45.16854,1002.041
3.278218269,-59.87772,-28.90846,11.32981,0.2457547,0.3311652,-0.748682,2.356844,-26.9572,45.16854,1002.041
3.283226967,-56.44067,-28.7874,10.77959,0.2478907,0.3451515,-0.7399613,2.356844,-26.9572,45.16854,1002.041
3.288236141,-52.26712,-28.72687,9.74028,0.2453055,0.3563358,-0.7395602,2.821701,-29.46047,43.84349,1002.041
3.293244839,-47.90943,-28.42422,8.762106,0.2457335,0.3602454,-0.7394074,2.821701,-29.46047,43.84349,1002.041
3.298256874,-42.99936,-28.90846,7.600525,0.2418275,0.3656699,-0.7440428,2.821701,-29.46047,43.84349,1002.041
3.303262711,-38.70305,-29.27163,7.050303,0.2445384,0.3768516,-0.7402284,2.821701,-29.46047,43.84349,1002.039
3.308271408,-34.95912,-29.87693,6.255538,0.2398518,0.3961968,-0.7352121,2.821701,-29.46047,43.84349,1002.039
3.313279629,-32.25858,-29.8164,5.216228,0.231567,0.4055522,-0.7435831,2.821701,-29.46047,43.84349,1002.039
3.318289280,-28.33053,-28.66634,3.932376,0.2322747,0.397009,-0.7535115,2.821701,-29.46047,43.84349,1002.039
3.323297978,-25.26174,-28.00051,3.56556,0.2303341,0.4060608,-0.7656783,2.821701,-29.46047,43.84349,1002.039
3.328306198,-23.35909,-28.72687,3.87124,0.2288515,0.4145512,-0.7744989,2.821701,-29.46047,43.84349,1002.039
3.333315849,-24.15697,-30.72434,5.216228,0.233307,0.4384213,-0.7692244,2.821701,-29.46047,43.84349,1002.039
3.338324070,-25.93687,-32.78234,6.866896,0.2367736,0.4592007,-0.7578303,3.97796,-31.63374,42.53268,1002.039
3.343332768,-27.40989,-33.81134,7.906205,0.2442067,0.4772249,-0.7513087,3.97796,-31.63374,42.53268,1002.042
3.348341942,-28.51466,-34.05346,7.906205,0.2565385,0.4708604,-0.7634473,3.97796,-31.63374,42.53268,1002.042
3.353350639,-26.85751,-32.9034,7.355982,0.2546025,0.4512967,-0.7839103,3.97796,-31.63374,42.53268,1002.042
3.358359337,-24.21835,-33.02446,6.561216,0.24954,0.4181859,-0.811645,3.97796,-31.63374,42.53268,1002.042
3.363368511,-22.74533,-34.84034,7.294847,0.2512172,0.4116772,-0.8243699,3.97796,-31.63374,42.53268,1002.042
3.368377209,-22.74533,-37.62469,9.556872,0.2435147,0.4091594,-0.8259795,3.97796,-31.63374,42.53268,1002.042
3.373385906,-24.5866,-39.31952,11.8189,0.2338259,0.405488,-0.8214054,3.97796,-31.63374,42.53268,1002.042
3.378395081,-26.91888,-39.74323,12.79707,0.2286091,0.3965949,-0.8203512,3.97796,-31.63374,42.53268,1002.042
3.383403778,-29.4353,-39.0774,12.79707,0.2323643,0.374297,-0.8250082,3.97796,-31.63374,42.53268,1002.036
3.388412476,-32.99509,-38.35105,13.22502,0.2343072,0.3743369,-0.8254689,5.158572,-32.74237,42.0826,1002.036
3.393417835,-37.10728,-37.14046,13.46957,0.2431875,0.3863097,-0.8100344,5.158572,-32.74237,42.0826,1002.036
3.398426533,-41.58772,-35.92987,12.55253,0.2614966,0.4164734,-0.7938192,5.158572,-32.74237,42.0826,1002.036
3.403434754,-46.80466,-34.9614,11.20754,0.2851222,0.4421403,-0.7700371,5.158572,-32.74237,42.0826,1002.036
3.408444405,-52.20574,-34.65876,10.10709,0.2960381,0.4784587,-0.7502937,5.158572,-32.74237,42.0826,1002.036
3.413452625,-56.6248,-35.32458,9.251193,0.3017975,0.4979523,-0.724512,5.158572,-32.74237,42.0826,1002.036
3.418461323,-59.01846,-36.47464,8.456428,0.2909505,0.504918,-0.7161805,5.158572,-32.74237,42.0826,1002.036
3.423470497,-58.34333,-37.62469,7.111439,0.2845617,0.4990569,-0.699646,5.158572,-32.74237,42.0826,1002.036
3.428479195,-54.16977,-37.92735,5.521907,0.2733136,0.4760748,-0.7054311,5.158572,-32.74237,42.0826,1002.036
3.433487892,-46.74329,-38.53264,4.115783,0.2547116,0.4537895,-0.7040514,5.158572,-32.74237,42.0826,1002.036
3.438497067,-38.51892,-39.13793,3.626696,0.2397527,0.4390778,-0.6903367,6.280406,-33.39401,40.39462,1002.036
3.443505764,-30.23318,-39.25899,3.687832,0.2319565,0.4454213,-0.6949737,6.280406,-33.39401,40.39462,1002.036
3.448514462,-22.07019,-39.0774,3.321017,0.2341743,0.4606135,-0.6958165,6.280406,-33.39401,40.39462,1002.036
3.453523636,-15.25747,-39.01687,3.626696,0.2340079,0.4758626,-0.7005234,6.280406,-33.39401,40.39462,1002.036
3.458532333,-8.997135,-38.41158,3.321017,0.2355623,0.4867268,-0.7250814,6.280406,-33.39401,40.39462,1002.036
3.463541031,-3.780186,-38.22999,3.321017,0.2386381,0.4902029,-0.7460623,6.280406,-33.39401,40.39462,1002.036
3.468550205,0.7616271,-38.10893,3.076474,0.2348844,0.500536,-0.7721321,6.280406,-33.39401,40.39462,1002.036
3.473558903,4.751058,-37.68523,3.015338,0.2384196,0.5095118,-0.7981849,6.280406,-33.39401,40.39462,1002.036
3.478567600,7.512971,-38.16946,2.709659,0.2342263,0.5174218,-0.825312,6.280406,-33.39401,40.39462,1002.036
3.483576775,9.845254,-38.77476,2.526251,0.2180736,0.5159324,-0.854831,6.280406,-33.39401,40.39462,1002.036
3.488585472,11.2569,-39.31952,2.893066,0.2024976,0.5091187,-0.8859888,7.858579,-34.86827,39.48965,1002.036
3.493594170,11.68653,-39.86428,3.015338,0.1906758,0.5035831,-0.9069722,7.858579,-34.86827,39.48965,1002.036
3.498603344,9.415623,-39.98534,3.443289,0.1737192,0.5093964,-0.9155595,7.858579,-34.86827,39.48965,1002.036
3.503612042,5.364816,-40.04588,2.893066,0.1619643,0.5210378,-0.9195517,7.858579,-34.86827,39.48965,1002.034
3.508624554,-0.8955212,-39.50111,2.0983,0.1508976,0.5230795,-0.9301492,7.858579,-34.86827,39.48965,1002.034
3.513629913,-7.892369,-37.74575,1.303535,0.1576523,0.5517365,-0.9193854,7.858579,-34.86827,39.48965,1002.034
3.518638611,-16.976,-35.80882,0.2030897,0.1611736,0.5987497,-0.9021878,7.858579,-34.86827,39.48965,1002.034
3.523646832,-29.4353,-33.99293,-1.875529,0.1829179,0.631087,-0.8930652,7.858579,-34.86827,39.48965,1002.034
3.528656483,-40.78983,-32.54023,-4.137554,0.2093063,0.6459956,-0.8874448,7.858579,-34.86827,39.48965,1002.034
3.533664703,-50.60997,-32.41917,-6.39958,0.218303,0.6537048,-0.877457,7.858579,-34.86827,39.48965,1002.034
3.538676739,-57.48406,-32.9034,-8.355927,0.2196958,0.6404555,-0.8534424,8.176602,-34.86189,39.49473,1002.034
3.543683052,-61.16661,-34.17452,-9.578643,0.2025613,0.6066146,-0.8375928,8.176602,-34.86189,39.49473,1002.034
3.548691273,-60.61423,-36.23252,-8.845014,0.167101,0.5706916,-0.8277609,8.176602,-34.86189,39.49473,1002.034
3.553699970,-54.90628,-38.22999,-7.010938,0.1163125,0.5299172,-0.8288288,8.176602,-34.86189,39.49473,1002.034
3.558709144,-44.53376,-40.34852,-5.115727,0.06756543,0.50896,-0.819994,8.176602,-34.86189,39.49473,1002.034
3.563717842,-30.72419,-41.49858,-3.46506,0.01156274,0.4980214,-0.8262224,8.176602,-34.86189,39.49473,1002.034
3.568727016,-14.82784,-41.86176,-3.159381,-0.04294955,0.4907259,-0.8409472,8.176602,-34.86189,39.49473,1002.034
3.573735714,2.357399,-42.34599,-3.648468,-0.1062595,0.512756,-0.8416656,8.176602,-34.86189,39.49473,1002.034
3.578744411,18.99026,-42.46705,-4.748912,-0.1534455,0.5277715,-0.8453823,8.176602,-34.86189,39.49473,1002.034
3.583753109,33.72047,-41.98281,-5.299135,-0.1896501,0.5073709,-0.8316033,8.176602,-34.86189,39.49473,1002.038
3.588762283,46.24114,-39.50111,-4.382098,-0.226008,0.4803333,-0.887751,9.366769,-35.89644,38.19603,1002.038
3.593767166,63.1195,-39.19846,-3.037109,-0.2662079,0.485123,-0.9907739,9.366769,-35.89644,38.19603,1002.038
3.598775387,83.55766,-39.44058,-3.098245,-0.2857628,0.516728,-1.017625,9.366769,-35.89644,38.19603,1002.038
3.603785038,96.81484,-37.26152,-4.810049,-0.2787785,0.5523522,-0.9916981,9.366769,-35.89644,38.19603,1002.038
3.608793259,99.45401,-33.38764,-7.805704,-0.2810392,0.5572485,-1.014117,9.366769,-35.89644,38.19603,1002.038
3.613801956,94.42119,-29.87693,-9.945458,-0.2689912,0.5398952,-1.077609,9.366769,-35.89644,38.19603,1002.038
3.618811607,89.69524,-27.7584,-10.98477,-0.2562133,0.5261669,-1.169787,9.366769,-35.89644,38.19603,1002.038
3.623819828,85.76719,-27.51628,-9.762051,-0.2379056,0.5440009,-1.23044,9.366769,-35.89644,38.19603,1002.032
3.628828525,79.81373,-28.42422,-7.989111,-0.2251113,0.5828751,-1.255269,9.366769,-35.89644,38.19603,1002.032
3.633837700,68.4592,-28.84793,-6.032765,-0.2192719,0.6060944,-1.242318,9.366769,-35.89644,38.19603,1002.032
3.638846397,50.78296,-28.90846,-3.893011,-0.2322364,0.5864984,-1.227329,10.79043,-34.80372,39.07908,1002.032
3.643855095,28.87177,-30.48222,0.1419538,-0.2478815,0.561851,-1.227453,10.79043,-34.80372,39.07908,1002.032
3.648864269,3.339413,-33.02446,5.644179,-0.2736514,0.5345044,-1.182127,10.79043,-34.80372,39.07908,1002.032
3.653872967,-23.78872,-35.26405,10.2905,-0.3003202,0.518271,-1.111881,10.79043,-34.80372,39.07908,1002.032
3.658881664,-48.58456,-33.56923,12.61366,-0.3224005,0.4829613,-1.037513,10.79043,-34.80372,39.07908,1002.032
3.663890839,-66.81319,-30.2401,13.59184,-0.3311217,0.454061,-0.9983322,10.79043,-34.80372,39.07908,1002.029
3.668899536,-76.63334,-27.69787,13.71411,-0.3291875,0.4283354,-0.9627747,10.79043,-34.80372,39.07908,1002.029
3.673908234,-78.35186,-24.36875,12.98048,-0.3100087,0.3889067,-0.9357446,10.79043,-34.80372,39.07908,1002.029
3.678917408,-71.78465,-21.5844,11.08527,-0.2954141,0.3665455,-0.910511,10.79043,-34.80372,39.07908,1002.029
3.683926105,-60.49148,-18.86057,8.211884,-0.2560154,0.345275,-0.8950931,10.79043,-34.80372,39.07908,1002.029
3.688934803,-47.29567,-15.71304,4.788277,-0.2319481,0.3526736,-0.8422107,11.48991,-32.58256,39.5701,1002.029
3.693943977,-33.60885,-12.98922,1.364671,-0.1984278,0.3613048,-0.814659,11.48991,-32.58256,39.5701,1002.029
3.698952675,-22.5612,-10.26539,-1.569849,-0.1795516,0.3765301,-0.7860332,11.48991,-32.58256,39.5701,1002.029
3.703961372,-11.26804,-8.631099,-4.076418,-0.1587103,0.3763467,-0.7858441,11.48991,-32.58256,39.5701,1002.027
3.708970547,-0.956897,-7.117863,-6.338444,-0.140303,0.3786246,-0.7879869,11.48991,-32.58256,39.5701,1002.027
3.713979244,8.310858,-5.362509,-9.517508,-0.1266245,0.376568,-0.7956245,11.48991,-32.58256,39.5701,1002.027
3.718987465,15.12358,-3.365038,-12.81884,-0.1208754,0.3845732,-0.8000709,11.48991,-32.58256,39.5701,1002.027
3.723997116,17.82412,-1.488626,-15.08087,-0.1052686,0.3815117,-0.805326,11.48991,-32.58256,39.5701,1002.027
3.729005814,17.63999,0.6904336,-16.42586,-0.1065838,0.3787939,-0.8150518,11.48991,-32.58256,39.5701,1002.027
3.734014034,14.44844,2.566846,-17.28176,-0.1082509,0.3597293,-0.8153122,11.48991,-32.58256,39.5701,1002.027
3.739023685,10.02938,4.866964,-18.07652,-0.09717801,0.373351,-0.8267024,12.63627,-34.37669,38.26299,1002.027
3.744031906,5.242064,6.319671,-18.74902,-0.0983882,0.3868921,-0.8218741,12.63627,-34.37669,38.26299,1002.03
3.749040604,-0.7727695,7.772377,-19.48265,-0.08749353,0.3970571,-0.8112944,12.63627,-34.37669,38.26299,1002.03
3.754049778,-6.419349,8.196082,-20.15514,-0.08225121,0.4024779,-0.8100779,12.63627,-34.37669,38.26299,1002.03
3.759058475,-11.02254,8.861906,-20.82764,-0.08975424,0.3827715,-0.8075347,12.63627,-34.37669,38.26299,1002.03
3.764067173,-13.9072,9.285612,-21.37786,-0.1018201,0.369078,-0.793754,12.63627,-34.37669,38.26299,1002.03
3.769076347,-16.36224,10.13302,-21.74467,-0.1116281,0.3681491,-0.7813886,12.63627,-34.37669,38.26299,1002.03
3.774085045,-18.08076,11.64626,-23.33421,-0.1231747,0.37762,-0.7556705,12.63627,-34.37669,38.26299,1002.03
3.779093742,-19.12415,13.46214,-24.61806,-0.1276341,0.3758049,-0.7437689,12.63627,-34.37669,38.26299,1002.03
3.784102917,-19.12415,15.88332,-26.45213,-0.1374514,0.3854542,-0.7449357,12.63627,-34.37669,38.26299,1002.03
3.789111614,-17.40563,17.51762,-27.67485,-0.1529307,0.3807452,-0.7414165,13.76522,-33.98043,38.74224,1002.03
3.794116497,-15.50298,18.90979,-29.32552,-0.1599344,0.3907174,-0.7338955,13.76522,-33.98043,38.74224,1002.03
3.799125671,-14.15271,20.48356,-29.8146,-0.1672276,0.3940836,-0.7362385,13.76522,-33.98043,38.74224,1002.03
3.804134369,-11.69767,21.69415,-30.54823,-0.1819599,0.4125809,-0.7428809,13.76522,-33.98043,38.74224,1002.03
3.809142590,-9.856397,22.66262,-31.343,-0.1896094,0.4112,-0.7511739,13.76522,-33.98043,38.74224,1002.03
3.814152241,-7.953745,23.81268,-32.32117,-0.1830764,0.4268516,-0.7481145,13.76522,-33.98043,38.74224,1002.03
3.819160461,-6.664852,25.44697,-33.0548,-0.2041642,0.4481493,-0.7532687,13.76522,-33.98043,38.74224,1002.03
3.824169159,-6.84898,25.32591,-33.66616,-0.1987815,0.458955,-0.772988,13.76522,-33.98043,38.74224,1002.028
3.829178333,-6.664852,25.14432,-33.29935,-0.2081957,0.4694258,-0.7673928,13.76522,-33.98043,38.74224,1002.028
3.834187031,-7.708242,24.78115,-32.01549,-0.1985841,0.4804835,-0.7745697,13.76522,-33.98043,38.74224,1002.028
3.839195728,-9.610893,24.90221,-31.03732,-0.2003536,0.5019147,-0.7732905,13.02393,-34.36317,37.81181,1002.028
3.844204903,-11.32942,24.96274,-29.87574,-0.2033496,0.4927192,-0.7991351,13.02393,-34.36317,37.81181,1002.028
3.849213600,-13.72308,24.11532,-28.46962,-0.2052414,0.4857348,-0.7941331,13.02393,-34.36317,37.81181,1002.028
3.854222298,-15.38022,24.72062,-27.2469,-0.1973687,0.4785654,-0.7957732,13.02393,-34.36317,37.81181,1002.028
3.859231472,-17.77388,26.5365,-26.88008,-0.1954435,0.4846202,-0.8027323,13.02393,-34.36317,37.81181,1002.028
3.864240169,-20.90405,27.14179,-27.49144,-0.1896863,0.4589706,-0.8089394,13.02393,-34.36317,37.81181,1002.028
3.869248867,-23.23633,27.74709,-26.75781,-0.1909535,0.446777,-0.8103762,13.02393,-34.36317,37.81181,1002.028
3.874258041,-24.52523,28.95768,-26.391,-0.1831136,0.4425575,-0.8128655,13.02393,-34.36317,37.81181,1002.028
3.879266739,-25.75274,30.34986,-27.00236,-0.184174,0.4413143,-0.8023517,13.02393,-34.36317,37.81181,1002.028
3.884275436,-25.8755,32.04468,-27.36917,-0.1745039,0.4373691,-0.7947229,13.02393,-34.36317,37.81181,1002.028
3.889284611,-25.93687,33.49738,-27.79712,-0.1642237,0.436761,-0.8037788,14.15891,-33.96105,37.83378,1002.028
3.894293308,-25.32311,34.46585,-28.1028,-0.1505373,0.4276561,-0.8025549,14.15891,-33.96105,37.83378,1002.028
3.899302006,-24.46385,34.82903,-28.65302,-0.1489765,0.4254111,-0.8098331,14.15891,-33.96105,37.83378,1002.028
3.904311180,-23.48184,35.25274,-29.44779,-0.1506688,0.4108289,-0.8137673,14.15891,-33.96105,37.83378,1002.028
3.909319878,-22.74533,35.01062,-29.69233,-0.1492365,0.4123136,-0.8136973,14.15891,-33.96105,37.83378,1002.026
3.914328575,-21.88606,34.58691,-29.75347,-0.1468442,0.4062188,-0.8023747,14.15891,-33.96105,37.83378,1002.026
3.919337749,-22.00882,34.16321,-29.38665,-0.1528094,0.4158671,-0.8011028,14.15891,-33.96105,37.83378,1002.026
3.924349785,-21.82469,33.7395,-29.32552,-0.1554052,0.4229877,-0.7941293,14.15891,-33.96105,37.83378,1002.026
3.929354668,-21.45643,33.37632,-29.08097,-0.1567638,0.4191561,-0.7981319,14.15891,-33.96105,37.83378,1002.026
3.934364319,-20.7813,32.89209,-28.83643,-0.1651203,0.419758,-0.7876166,13.80225,-34.72198,37.42834,1002.026
3.939372540,-20.84267,32.46838,-28.34735,-0.173915,0.4229877,-0.7851739,13.80225,-34.72198,37.42834,1002.026
3.944381237,-20.47442,32.52891,-27.85826,-0.1767663,0.4160121,-0.7811416,13.80225,-34.72198,37.42834,1002.026
3.949390888,-20.47442,31.6815,-27.00236,-0.1889684,0.4236978,-0.7833665,13.80225,-34.72198,37.42834,1002.025
3.954399109,-19.67653,31.62097,-25.96305,-0.1966192,0.417266,-0.7846441,13.80225,-34.72198,37.42834,1002.025
3.959407806,-18.94002,31.25779,-24.98487,-0.1974937,0.411421,-0.7858357,13.80225,-34.72198,37.42834,1002.025
3.964416981,-17.65113,31.43938,-23.76216,-0.1976091,0.4197254,-0.7860013,13.80225,-34.72198,37.42834,1002.025
3.969425678,-17.09875,31.86309,-23.08966,-0.193219,0.4228888,-0.7930472,13.80225,-34.72198,37.42834,1002.025
3.974434376,-16.73049,31.62097,-22.11149,-0.1780705,0.4469953,-0.7910267,13.80225,-34.72198,37.42834,1002.025
3.979443550,-17.40563,31.43938,-21.07218,-0.1696487,0.4671001,-0.7892217,13.80225,-34.72198,37.42834,1002.025
3.984452248,-18.14214,30.89462,-20.21628,-0.159695,0.4838805,-0.7904117,13.06318,-35.42654,36.95211,1002.025
3.989460945,-18.57177,30.16827,-19.66606,-0.1528247,0.4872175,-0.8031936,13.06318,-35.42654,36.95211,1002.027
3.994466305,-18.08076,29.32085,-19.36038,-0.145917,0.4866059,-0.8142034,13.06318,-35.42654,36.95211,1002.027
3.999475002,-17.71251,28.11027,-19.23811,-0.1464167,0.4835337,-0.808559,13.06318,-35.42654,36.95211,1002.027
4.004483223,-17.34425,26.83915,-18.93243,-0.1516141,0.4852878,-0.8239172,13.06318,-35.42654,36.95211,1002.027
4.009492874,-16.976,25.5075,-18.25993,-0.1566681,0.4938019,-0.8154723,13.06318,-35.42654,36.95211,1002.027
4.014501572,-16.85324,23.87321,-17.83198,-0.169343,0.499994,-0.8167975,13.06318,-35.42654,36.95211,1002.027
4.019510746,-16.54636,22.96526,-17.58744,-0.1715876,0.5108399,-0.801991,13.06318,-35.42654,36.95211,1002.027
4.024519444,-17.28288,21.51256,-17.3429,-0.1797851,0.5328783,-0.7892172,13.06318,-35.42654,36.95211,1002.027
4.029527664,-16.85324,20.54409,-17.28176,-0.1885826,0.5345869,-0.7844299,13.06318,-35.42654,36.95211,1002.027
4.034536362,-16.05536,19.69667,-16.91494,-0.1914074,0.5281798,-0.7837393,13.05106,-34.72557,36.50161,1002.027
4.039545536,-15.25747,19.09138,-15.44768,-0.2018271,0.5179987,-0.793354,13.05106,-34.72557,36.50161,1002.027
4.044558525,-13.96858,17.2755,-14.10269,-0.1965989,0.4967784,-0.8013197,13.05106,-34.72557,36.50161,1002.027
4.049562931,-12.86381,15.15697,-12.02408,-0.2054712,0.4787675,-0.8092958,13.05106,-34.72557,36.50161,1002.027
4.054572105,-11.69767,13.46214,-10.31227,-0.2010355,0.4719442,-0.8071111,13.05106,-34.72557,36.50161,1002.027
4.059580803,-10.77703,12.37261,-8.233655,-0.199579,0.4744967,-0.8108443,13.05106,-34.72557,36.50161,1002.027
4.064589977,-10.77703,10.85938,-6.277308,-0.194837,0.4834057,-0.8128633,13.05106,-34.72557,36.50161,1002.027
4.069598675,-10.71566,9.951436,-5.115727,-0.1834556,0.5026695,-0.8149064,13.05106,-34.72557,36.50161,1002.025
4.074607372,-11.14529,9.043494,-4.320961,-0.1753507,0.5125692,-0.8154146,13.05106,-34.72557,36.50161,1002.025
4.079616547,-12.37281,8.014494,-2.792566,-0.1672911,0.5228646,-0.8120642,13.05106,-34.72557,36.50161,1002.025
4.084625244,-13.6617,6.924965,-1.569849,-0.1625624,0.527199,-0.8065693,12.36131,-35.11875,36.48674,1002.025
4.089633942,-15.56435,6.017024,-0.285997,-0.1580026,0.5462716,-0.8048398,12.36131,-35.11875,36.48674,1002.025
4.094643116,-16.79187,5.714376,0.5699046,-0.1511466,0.539983,-0.8030926,12.36131,-35.11875,36.48674,1002.025
4.099651814,-18.08076,5.230141,1.058991,-0.1438564,0.5436767,-0.810091,12.36131,-35.11875,36.48674,1002.025
4.104660511,-18.44902,5.169611,1.731485,-0.136955,0.5369924,-0.8122023,12.36131,-35.11875,36.48674,1002.025
4.109669685,-19.43103,4.866964,2.587387,-0.1318185,0.5507407,-0.8121116,12.36131,-35.11875,36.48674,1002.023
4.114678383,-19.73791,5.048553,3.015338,-0.1189287,0.5590519,-0.8044666,12.36131,-35.11875,36.48674,1002.023
4.119687080,-19.79929,6.259141,2.220572,-0.1093805,0.5478935,-0.8220993,12.36131,-35.11875,36.48674,1002.023
4.124696255,-19.61516,7.953965,1.303535,-0.09486091,0.5516012,-0.8251852,12.36131,-35.11875,36.48674,1002.023
4.129704952,-21.39506,8.075024,1.181263,-0.08580052,0.5549201,-0.8153636,12.36131,-35.11875,36.48674,1002.023
4.134713650,-24.52523,7.348671,1.792621,-0.08710944,0.5763007,-0.8116796,12.37946,-35.81386,36.47997,1002.023
4.139722824,-29.37392,6.3802,2.342844,-0.0721253,0.5949647,-0.7863231,12.37946,-35.81386,36.47997,1002.023
4.144731522,-33.91573,5.472259,2.83193,-0.05985413,0.6315733,-0.7574266,12.37946,-35.81386,36.47997,1002.023
4.149739742,-38.15067,5.653847,2.770795,-0.05489178,0.62082,-0.753945,12.37946,-35.81386,36.47997,1002.022
4.154749393,-38.8258,6.682847,1.609214,-0.04288081,0.5976784,-0.7590368,12.37946,-35.81386,36.47997,1002.022
4.159757614,-38.5803,6.864436,1.609214,-0.04185363,0.5626434,-0.7637234,12.37946,-35.81386,36.47997,1002.022
4.164766312,-37.59829,6.138083,2.281708,-0.0378025,0.5530244,-0.7674148,12.37946,-35.81386,36.47997,1002.022
4.169775963,-37.16866,3.898494,4.482598,-0.04534953,0.5673914,-0.7602122,12.37946,-35.81386,36.47997,1002.022
4.174784184,-36.06389,3.051081,5.583043,-0.0515695,0.5839999,-0.7437824,12.37946,-35.81386,36.47997,1002.022
4.179792881,-34.16124,2.687905,5.399636,-0.05981285,0.5863878,-0.7466521,12.37946,-35.81386,36.47997,1002.022
4.184802055,-30.47869,2.445787,4.910549,-0.06547505,0.5806103,-0.7536522,12.71858,-36.17574,35.63212,1002.022
4.189810753,-26.18237,3.17214,4.910549,-0.08298179,0.5827254,-0.7508534,12.71858,-36.17574,35.63212,1002.02
4.194815636,-22.07019,3.656376,4.482598,-0.1006017,0.5926456,-0.7477587,12.71858,-36.17574,35.63212,1002.02
4.199824810,-19.79929,4.019552,4.238055,-0.1063866,0.6126759,-0.7311946,12.71858,-36.17574,35.63212,1002.02
4.204833508,-19.2469,4.019552,3.932376,-0.1134135,0.625621,-0.7254828,12.71858,-36.17574,35.63212,1002.02
4.209842205,-20.10616,4.140611,3.687832,-0.1110834,0.6575945,-0.713193,12.71858,-36.17574,35.63212,1002.02
4.214851379,-22.07019,4.140611,2.954202,-0.1163113,0.6522083,-0.7158496,12.71858,-36.17574,35.63212,1002.02
4.219860077,-23.35909,3.898494,2.893066,-0.111098,0.6565498,-0.7103499,12.71858,-36.17574,35.63212,1002.02
4.224868298,-23.54321,3.898494,2.342844,-0.1064839,0.6446024,-0.718449,12.71858,-36.17574,35.63212,1002.02
4.229877949,-23.29771,2.990552,2.220572,-0.1064826,0.6496533,-0.7254643,12.71858,-36.17574,35.63212,1002.024
4.234886646,-22.19294,2.506317,2.281708,-0.107716,0.6289595,-0.7185751,10.91107,-36.9543,34.28878,1002.024
4.239894867,-21.64056,2.445787,2.159436,-0.1058789,0.6553526,-0.6978533,10.91107,-36.9543,34.28878,1002.024
4.244904518,-22.37707,2.445787,2.159436,-0.104239,0.6432015,-0.6992612,10.91107,-36.9543,34.28878,1002.024
4.249912739,-23.42046,2.627375,2.0983,-0.09938607,0.6638407,-0.6811323,10.91107,-36.9543,34.28878,1002.024
4.254921436,-25.62999,2.748434,2.159436,-0.09696852,0.6628544,-0.6792251,10.91107,-36.9543,34.28878,1002.024
4.259930611,-27.71677,3.111611,2.40398,-0.09727253,0.6742396,-0.6653408,10.91107,-36.9543,34.28878,1002.024
4.264939308,-30.11043,3.293199,2.465116,-0.1002468,0.6740359,-0.6586496,10.91107,-36.9543,34.28878,1002.024
4.269948006,-32.01308,3.535317,2.465116,-0.093612,0.6747881,-0.6451045,10.91107,-36.9543,34.28878,1002.024
4.274957180,-34.09986,2.930022,2.587387,-0.09954007,0.6794777,-0.6406574,10.91107,-36.9543,34.28878,1002.024
4.279965878,-35.08187,2.748434,2.648523,-0.09851143,0.6685295,-0.6314542,10.91107,-36.9543,34.28878,1002.024
4.284977913,-36.06389,2.14314,2.893066,-0.1041108,0.673357,-0.6121032,11.32679,-38.01504,33.82712,1002.024
4.289983749,-36.12526,2.14314,3.504425,-0.1135587,0.6551202,-0.6109638,11.32679,-38.01504,33.82712,1002.024
4.294992447,-34.52949,1.11414,4.482598,-0.1233184,0.6553167,-0.6048016,11.32679,-38.01504,33.82712,1002.024
4.300001144,-31.95171,0.9325513,5.521907,-0.1308192,0.6351109,-0.6017969,11.32679,-38.01504,33.82712,1002.024
4.305010319,-26.79613,0.9325513,6.866896,-0.1346577,0.6321158,-0.6014664,11.32679,-38.01504,33.82712,1002.024
4.310019016,-20.84267,0.8720219,7.96734,-0.1387916,0.6184623,-0.6049076,11.32679,-38.01504,33.82712,1002.022
4.315027714,-13.29344,0.5088453,8.517563,-0.1481451,0.6135767,-0.6311285,11.32679,-38.01504,33.82712,1002.022
4.317532063,-9.610893,-0.3385668,8.823242,-0.1519614,0.6131589,-0.6364658,11.32679,-38.01504,33.82712,1002.022
4.322540760,-2.614045,-1.488626,9.862552,-0.1613626,0.5995773,-0.6462004,11.32679,-38.01504,33.82712,1002.022
4.327549934,3.584917,-2.517626,11.02413,-0.1677432,0.6078703,-0.6497889,11.32679,-38.01504,33.82712,1002.022
4.332558632,7.267468,-3.062391,12.18571,-0.1780867,0.6234699,-0.6550589,11.74931,-39.13395,32.9729,1002.022
4.337567329,9.170119,-2.820273,13.10275,-0.1732098,0.6357321,-0.6747275,11.74931,-39.13395,32.9729,1002.022
4.342576504,8.188106,-3.18345,13.89752,-0.1653235,0.6627743,-0.6774686,11.74931,-39.13395,32.9729,1002.022
4.347585201,5.733071,-3.425568,14.69228,-0.159426,0.6701264,-0.6953925,11.74931,-39.13395,32.9729,1002.021
4.352593899,0.9457546,-4.394038,14.99796,-0.1564309,0.713499,-0.6692088,11.74931,-39.13395,32.9729,1002.021
4.357603073,-5.437335,-4.938803,15.18137,-0.1522101,0.7197892,-0.6641248,11.74931,-39.13395,32.9729,1002.021
4.362611771,-13.17069,-5.725686,15.67045,-0.1416323,0.747366,-0.6466393,11.74931,-39.13395,32.9729,1002.021
4.367620468,-18.87865,-6.39151,15.67045,-0.136013,0.7264332,-0.6459411,11.74931,-39.13395,32.9729,1002.021
4.372629643,-21.45643,-6.996804,16.22068,-0.1341125,0.7198089,-0.6332018,11.74931,-39.13395,32.9729,1002.021
4.377638340,-22.8067,-7.42051,16.58749,-0.1295784,0.676519,-0.637689,11.74931,-39.13395,32.9729,1002.021
4.382647038,-20.65855,-7.662628,17.38226,-0.1187752,0.6568282,-0.6244019,10.60443,-39.15692,32.95462,1002.021
4.387656212,-18.87865,-7.178392,18.60497,-0.1156012,0.6312624,-0.6152542,10.60443,-39.15692,32.95462,1002.025
4.392660618,-14.95059,-6.512568,20.13337,-0.09854206,0.6051455,-0.6357877,10.60443,-39.15692,32.95462,1002.025
4.397669315,-11.20667,-6.573098,20.80586,-0.08058242,0.6290641,-0.6241378,10.60443,-39.15692,32.95462,1002.025
4.402679920,-8.506128,-5.362509,21.17268,-0.06670895,0.6384342,-0.6193264,10.60443,-39.15692,32.95462,1002.025
4.407687187,-7.646866,-5.059862,22.21199,-0.05147267,0.6868349,-0.6120563,10.60443,-39.15692,32.95462,1002.025
4.412695885,-9.795021,-5.362509,22.70107,-0.05237414,0.7346449,-0.5900651,10.60443,-39.15692,32.95462,1002.025
4.417705059,-12.55693,-4.878274,23.19016,-0.05266983,0.7505931,-0.5832146,10.60443,-39.15692,32.95462,1002.025
4.422713757,-13.10932,-4.757215,23.2513,-0.07093929,0.7255725,-0.6102853,10.60443,-39.15692,32.95462,1002.025
4.427722454,-11.20667,-5.120391,24.04606,-0.08360532,0.6831146,-0.6398886,10.60443,-39.15692,32.95462,1002.025
4.432731629,-8.076497,-6.149392,25.57446,-0.1015445,0.6642929,-0.6604739,11.01024,-39.83851,32.49666,1002.025
4.437740326,-4.516697,-7.117863,27.46967,-0.1093647,0.652553,-0.6850191,11.01024,-39.83851,32.49666,1002.025
4.442749024,-1.877535,-8.449511,29.54829,-0.1113889,0.6629185,-0.6908903,11.01024,-39.83851,32.49666,1002.025
4.447761536,-1.079649,-9.478511,31.26009,-0.1227911,0.6843462,-0.6954679,11.01024,-39.83851,32.49666,1002.025
4.452766895,-2.491293,-9.841687,32.42167,-0.1207577,0.7102013,-0.6930237,11.01024,-39.83851,32.49666,1002.025
4.457775593,-5.498711,-9.720629,33.09417,-0.1274491,0.7409683,-0.6972018,11.01024,-39.83851,32.49666,1002.025
4.462784767,-9.979149,-9.720629,33.70553,-0.1298258,0.7701744,-0.6946716,11.01024,-39.83851,32.49666,1002.025
4.467793465,-15.01197,-9.720629,34.07234,-0.1246204,0.7815642,-0.6980333,11.01024,-39.83851,32.49666,1002.023
4.472802162,-18.7559,-9.902217,34.37802,-0.1169133,0.7830833,-0.6955006,11.01024,-39.83851,32.49666,1002.023
4.477811337,-21.88606,-9.720629,34.43916,-0.1121828,0.784898,-0.686738,11.01024,-39.83851,32.49666,1002.023
4.482820034,-22.86808,-9.478511,34.43916,-0.09947497,0.7757561,-0.6845637,9.938855,-40.23935,32.4757,1002.023
4.487828255,-22.92945,-9.539041,34.37802,-0.07999126,0.7661908,-0.6809003,9.938855,-40.23935,32.4757,1002.023
4.492837906,-21.64056,-9.417981,34.43916,-0.06216487,0.7662109,-0.6706414,9.938855,-40.23935,32.4757,1002.023
4.497846604,-19.79929,-8.873217,34.43916,-0.04637625,0.7519757,-0.6782419,9.938855,-40.23935,32.4757,1002.023
4.502855778,-17.58975,-8.631099,34.6837,-0.02608788,0.746573,-0.6643221,9.938855,-40.23935,32.4757,1002.023
4.507864475,-16.05536,-7.783687,34.62257,-0.01870877,0.7413939,-0.6678132,9.938855,-40.23935,32.4757,1002.023
4.512872696,-15.13472,-6.996804,34.86711,-0.01234087,0.7401376,-0.6726061,9.938855,-40.23935,32.4757,1002.023
4.517882347,-14.95059,-5.907274,34.80597,0.005616803,0.737949,-0.6720399,9.938855,-40.23935,32.4757,1002.023
4.522890568,-15.38022,-5.059862,35.05051,0.01082579,0.7442994,-0.6688664,9.938855,-40.23935,32.4757,1002.023
4.527899265,-17.03737,-4.030862,35.35619,0.02336893,0.7478866,-0.6681314,9.938855,-40.23935,32.4757,1002.023
4.532908917,-19.43103,-2.880803,35.60074,0.02664969,0.7552418,-0.6673403,10.34159,-40.59995,31.62887,1002.023
4.537917137,-22.43845,-1.730744,35.78415,0.03466401,0.7669432,-0.6615342,10.34159,-40.59995,31.62887,1002.023
4.542925835,-25.38449,-1.00439,35.78415,0.03833485,0.7801362,-0.6595563,10.34159,-40.59995,31.62887,1002.023
4.547935009,-29.00566,-0.1569785,35.78415,0.02980162,0.7929336,-0.6485788,10.34159,-40.59995,31.62887,1002.023
4.552943707,-32.25858,0.750963,35.29506,0.02138885,0.7984481,-0.6393186,10.34159,-40.59995,31.62887,1002.021
4.557952404,-34.03849,1.235198,34.92824,0.02118938,0.8060459,-0.6303824,10.34159,-40.59995,31.62887,1002.021
4.562961578,-34.95912,1.295728,34.86711,0.01027195,0.8188999,-0.6232691,10.34159,-40.59995,31.62887,1002.021
4.567970276,-34.77499,1.356257,34.62257,-0.001192109,0.8326074,-0.6113235,10.34159,-40.59995,31.62887,1002.021
4.572978973,-33.2406,0.8114924,34.98938,-0.008483098,0.8354741,-0.613205,10.34159,-40.59995,31.62887,1002.021
4.577988148,-30.17181,-0.3385668,34.74483,-0.0291974,0.8354576,-0.625413,10.34159,-40.59995,31.62887,1002.021
4.582996845,-25.99825,-1.307038,35.05051,-0.05248402,0.8405989,-0.6302415,8.855184,-41.69312,30.67947,1002.021
4.588005543,-22.00882,-2.699214,35.47847,-0.06038452,0.8517401,-0.6313334,8.855184,-41.69312,30.67947,1002.021
4.593010902,-17.83526,-3.667685,35.66187,-0.07604767,0.8693051,-0.6404226,8.855184,-41.69312,30.67947,1002.021
4.598019123,-14.70509,-4.030862,35.35619,-0.08946827,0.8955597,-0.6438745,8.855184,-41.69312,30.67947,1002.021
4.603027820,-10.28603,-5.059862,34.92824,-0.08975722,0.9291918,-0.6618178,8.855184,-41.69312,30.67947,1002.021
4.608037472,-4.209818,-5.967803,33.8278,-0.0944507,0.9416002,-0.6935834,8.855184,-41.69312,30.67947,1002.021
4.613045692,1.805017,-6.270451,32.23827,-0.08933006,0.931227,-0.7059425,8.855184,-41.69312,30.67947,1002.021
4.618054390,6.653709,-5.907274,31.93259,-0.07275122,0.9222761,-0.7503331,8.855184,-41.69312,30.67947,1002.021
4.623063564,9.231496,-6.996804,33.1553,-0.04876072,0.9222116,-0.7736543,8.855184,-41.69312,30.67947,1002.021
4.628072262,8.617737,-6.815216,34.13348,-0.03698792,0.9247475,-0.7907452,8.855184,-41.69312,30.67947,1002.021
4.633080959,6.224079,-6.028333,34.50029,-0.02789091,0.9126524,-0.8103397,7.419408,-42.08485,29.34592,1002.023
4.638090134,0.5161236,-4.575627,34.86711,-0.01773423,0.8987698,-0.8362389,7.419408,-42.08485,29.34592,1002.023
4.643098831,-7.033107,-3.970332,35.66187,-0.01127286,0.8696163,-0.8589097,7.419408,-42.08485,29.34592,1002.023
4.648107529,-16.54636,-4.21245,37.61822,-0.004795099,0.8570136,-0.8588477,7.419408,-42.08485,29.34592,1002.023
4.653116703,-27.83952,-4.999333,39.88025,-0.008802247,0.8421502,-0.8729048,7.419408,-42.08485,29.34592,1002.023
4.658125400,-36.92315,-5.725686,41.22523,-0.01724804,0.8219877,-0.8723098,7.419408,-42.08485,29.34592,1002.023
4.663134098,-43.6745,-7.178392,42.63136,-0.03343626,0.8027452,-0.8741551,7.419408,-42.08485,29.34592,1002.023
4.668143272,-48.09356,-8.812687,43.79294,-0.03974854,0.7864673,-0.8508086,7.419408,-42.08485,29.34592,1002.023
4.673151970,-50.42584,-10.26539,45.01566,-0.04625732,0.7899092,-0.8353629,7.419408,-42.08485,29.34592,1002.023
4.678160667,-50.24171,-11.83916,45.81042,-0.04452502,0.7914627,-0.8175091,7.419408,-42.08485,29.34592,1002.023
4.683169842,-47.90943,-12.7471,46.1161,-0.03393227,0.7838866,-0.8003996,6.656152,-42.10017,29.33374,1002.023
4.688178539,-44.28825,-12.80763,45.68815,-0.01885441,0.7756634,-0.794324,6.656152,-42.10017,29.33374,1002.023
4.693187237,-38.88718,-12.56551,44.15976,-0.01219231,0.7523979,-0.7975489,6.656152,-42.10017,29.33374,1002.023
4.698196411,-32.87234,-11.7181,42.14227,-0.002676101,0.7100122,-0.8163698,6.656152,-42.10017,29.33374,1002.023
4.703205109,-27.59402,-11.17334,40.55274,-0.002082444,0.6776165,-0.8296092,6.656152,-42.10017,29.33374,1002.023
4.708213329,-25.20036,-11.23386,39.75797,0.007423117,0.6587837,-0.8326387,6.656152,-42.10017,29.33374,1002.023
4.713222980,-25.32311,-12.38392,40.06365,0.01628001,0.6546936,-0.8399185,6.656152,-42.10017,29.33374,1002.023
4.718231678,-27.47127,-14.01822,40.43047,0.01951027,0.6614228,-0.8333856,6.656152,-42.10017,29.33374,1002.023
4.723239899,-30.47869,-15.65251,40.73615,0.0232127,0.6666151,-0.8235433,6.656152,-42.10017,29.33374,1002.023
4.728249550,-34.09986,-16.62098,39.45229,0.04441304,0.6631088,-0.8066597,6.656152,-42.10017,29.33374,1002.023
4.733260155,-38.39617,-17.22628,37.80163,0.05326872,0.6443768,-0.793835,5.240176,-43.25021,27.99279,1002.023
4.738266468,-42.44698,-17.4684,36.45664,0.06397965,0.6300173,-0.7789045,5.240176,-43.25021,27.99279,1002.023
4.743275642,-45.51577,-17.34734,35.05051,0.07579647,0.6069144,-0.7652572,5.240176,-43.25021,27.99279,1002.023
4.748284340,-47.66393,-16.92363,33.8278,0.08228717,0.5786942,-0.7451277,5.240176,-43.25021,27.99279,1002.023
4.753293037,-49.99621,-17.22628,32.9719,0.09020639,0.5559879,-0.7300605,5.240176,-43.25021,27.99279,1002.023
4.758302212,-51.34648,-17.83157,32.42167,0.09314284,0.5389379,-0.7095394,5.240176,-43.25021,27.99279,1002.023
4.763310909,-50.85547,-18.43686,31.93259,0.09755605,0.5285271,-0.7002839,5.240176,-43.25021,27.99279,1002.023
4.768319607,-48.76869,-18.86057,31.87145,0.1078494,0.5133117,-0.6906754,5.240176,-43.25021,27.99279,1002.023
4.773328781,-44.90201,-19.10269,31.07668,0.1182573,0.4867613,-0.676692,5.240176,-43.25021,27.99279,1002.023
4.778337479,-40.05332,-19.04216,30.52646,0.1223047,0.4715805,-0.6724265,5.240176,-43.25021,27.99279,1002.023
4.783346176,-35.51151,-18.80004,29.97624,0.1307152,0.4569742,-0.6690589,3.822549,-44.33707,26.65247,1002.023
4.788355350,-30.54006,-18.55792,30.09851,0.1412388,0.4603374,-0.6601831,3.822549,-44.33707,26.65247,1002.023
4.793360233,-24.83211,-17.52892,29.9151,0.1402134,0.4652359,-0.6614478,3.822549,-44.33707,26.65247,1002.022
4.798368454,-19.36965,-17.95263,30.46533,0.1401043,0.4700219,-0.6574228,3.822549,-44.33707,26.65247,1002.022
4.803378105,-13.6617,-17.8921,30.64873,0.1370222,0.4796551,-0.6537218,3.822549,-44.33707,26.65247,1002.022
4.808386326,-8.62888,-18.07369,31.01555,0.1281259,0.4987944,-0.663168,3.822549,-44.33707,26.65247,1002.022
4.813395023,-4.516697,-18.67898,31.4435,0.1215795,0.5147657,-0.6611804,3.822549,-44.33707,26.65247,1002.022
4.818404198,-2.614045,-19.46587,31.93259,0.1196913,0.5409598,-0.6549162,3.822549,-44.33707,26.65247,1002.022
4.823412895,-0.8955212,-20.19222,32.42167,0.1155773,0.5675908,-0.6683569,3.822549,-44.33707,26.65247,1002.022
4.828421593,-0.097635,-21.88704,33.1553,0.1090604,0.5866617,-0.6734586,3.822549,-44.33707,26.65247,1002.022
4.833430767,0.5161236,-23.27922,34.07234,0.1017627,0.6196534,-0.6689087,3.070495,-44.34149,25.79105,1002.022
4.838439465,0.331996,-24.97404,34.86711,0.09292981,0.6333921,-0.6771182,3.070495,-44.34149,25.79105,1002.022
4.843448162,-0.2817626,-26.78993,35.96755,0.08188382,0.6595669,-0.6757458,3.070495,-44.34149,25.79105,1002.022
4.848457336,-1.079649,-28.24263,37.00686,0.06996654,0.6738472,-0.6676267,3.070495,-44.34149,25.79105,1002.022
4.853466034,-2.24579,-29.87693,38.16844,0.06090812,0.6966356,-0.6663645,3.070495,-44.34149,25.79105,1002.022
4.858474731,-3.596059,-31.26911,38.84094,0.05390065,0.710637,-0.6639758,3.070495,-44.34149,25.79105,1002.022
4.863483906,-4.393945,-33.20605,39.75797,0.03582757,0.7211301,-0.6647076,3.070495,-44.34149,25.79105,1002.022
4.868492603,-4.393945,-34.47717,40.18592,0.02583581,0.7052677,-0.6610805,3.070495,-44.34149,25.79105,1002.022
4.873501301,-4.02569,-35.9904,40.55274,0.02201926,0.7038397,-0.6650147,3.070495,-44.34149,25.79105,1002.02
4.878510475,-2.307166,-37.32205,40.91956,0.02385232,0.6876093,-0.6795494,3.070495,-44.34149,25.79105,1002.02
4.883519173,-0.6500177,-39.44058,41.65319,0.03086256,0.6751288,-0.6842828,2.33307,-45.10924,25.3142,1002.02
4.888528347,1.743641,-41.7407,42.8759,0.04215138,0.6700869,-0.6910954,2.33307,-45.10924,25.3142,1002.02
4.893540859,3.400789,-44.2224,43.91521,0.04587428,0.6707851,-0.6770993,2.33307,-45.10924,25.3142,1002.02
4.898545742,4.628306,-46.40146,45.01566,0.05660915,0.6660743,-0.6776581,2.33307,-45.10924,25.3142,1002.02
4.903554916,5.671696,-47.67258,45.13793,0.05845559,0.6458376,-0.6880205,2.33307,-45.10924,25.3142,1002.02
4.908566952,6.224079,-47.73311,45.07679,0.07002597,0.634258,-0.6662492,2.33307,-45.10924,25.3142,1002.02
4.913572311,4.56693,-48.82264,45.56588,0.06222976,0.6406014,-0.6708862,2.33307,-45.10924,25.3142,1002.024
4.918581486,0.8843788,-50.63852,46.78859,0.0600288,0.6715972,-0.6408977,2.33307,-45.10924,25.3142,1002.024
4.923590183,-3.227804,-52.99917,48.01131,0.07514676,0.6885633,-0.6261756,2.33307,-45.10924,25.3142,1002.024
4.928598404,-6.11247,-55.29929,49.29516,0.08368697,0.7209207,-0.6056443,2.33307,-45.10924,25.3142,1002.024
4.933608055,-5.866966,-56.02564,49.3563,0.09237801,0.6968923,-0.6165671,2.33307,-45.10924,25.3142,1002.024
4.938616753,-2.675421,-56.99411,49.66198,0.09285805,0.6702812,-0.6267045,2.33307,-45.10924,25.3142,1002.024
4.943624973,1.743641,-57.72047,50.39561,0.09280534,0.6425377,-0.6306434,2.33307,-45.10924,25.3142,1002.024
4.948634624,5.119313,-58.93106,52.16855,0.08725928,0.6495121,-0.6193787,2.33307,-45.10924,25.3142,1002.024
4.953645706,6.837837,-59.71794,53.63581,0.08378458,0.6527967,-0.615923,2.33307,-45.10924,25.3142,1002.022
4.958651543,8.188106,-60.14164,54.49171,0.07557935,0.6542665,-0.6212297,2.33307,-45.10924,25.3142,1002.022
4.963660717,8.679112,-59.96006,54.91966,0.07233524,0.6399321,-0.6160396,2.33307,-45.10924,25.3142,1002.022
4.968669415,8.985992,-59.77847,55.71443,0.07223555,0.6161141,-0.6207905,2.33307,-45.10924,25.3142,1002.022
4.973678112,9.047368,-59.77847,56.50919,0.0699084,0.6142888,-0.6276089,2.33307,-45.10924,25.3142,1002.022
4.978687286,8.86324,-58.93106,56.93714,0.07113825,0.62084,-0.6148551,2.33307,-45.10924,25.3142,1002.022
4.983695984,7.512971,-59.17317,57.73191,0.07493505,0.6478183,-0.5969755,2.336937,-45.49425,25.76778,1002.022
4.988704681,5.119313,-59.96006,58.95462,0.08217222,0.6684009,-0.5749825,2.336937,-45.49425,25.76778,1002.022
4.993710041,2.909782,-60.868,59.68826,0.08423773,0.7063013,-0.5451717,2.336937,-45.49425,25.76778,1002.022
4.998718739,1.559513,-60.868,59.68826,0.08720034,0.7260173,-0.5304593,2.336937,-45.49425,25.76778,1002.022
5.003726959,2.971158,-60.68641,58.83236,0.08921164,0.7216783,-0.5315665,2.336937,-45.49425,25.76778,1002.022
5.008736610,7.512971,-60.868,57.73191,0.08267055,0.7120647,-0.5420842,2.336937,-45.49425,25.76778,1002.022
5.013745308,14.20294,-61.35223,57.12055,0.07700054,0.7037445,-0.5448565,2.336937,-45.49425,25.76778,1002.022
5.018753529,21.44529,-61.71541,56.93714,0.06838149,0.700329,-0.5503531,2.336937,-45.49425,25.76778,1002.022
5.023763180,28.68764,-62.26017,56.6926,0.06449904,0.7037907,-0.5545824,2.336937,-45.49425,25.76778,1002.022
5.028771400,33.78184,-62.01805,56.44806,0.06863146,0.6933573,-0.565031,2.336937,-45.49425,25.76778,1002.022
5.033780098,37.28027,-61.47329,56.32579,0.07655438,0.6953947,-0.5840989,0.482502,-45.1521,25.74203,1002.026
5.038789272,38.44641,-61.04959,55.8367,0.08677517,0.6971681,-0.5906623,0.482502,-45.1521,25.74203,1002.026
5.043797970,37.03476,-60.868,55.40875,0.09442919,0.7071413,-0.5945354,0.482502,-45.1521,25.74203,1002.026
5.048806667,32.55433,-60.80747,55.10307,0.1049305,0.7271091,-0.6061701,0.482502,-45.1521,25.74203,1002.026
5.053815842,26.66224,-61.04959,55.10307,0.1102056,0.72958,-0.6041045,0.482502,-45.1521,25.74203,1002.026
5.058828831,19.35851,-61.95753,55.28648,0.1101538,0.733494,-0.6044366,0.482502,-45.1521,25.74203,1002.026
5.063833237,13.2823,-62.19964,54.85852,0.1108866,0.7194581,-0.6092881,0.482502,-45.1521,25.74203,1002.026
5.068842411,8.494986,-62.50229,54.24717,0.1126522,0.6924652,-0.6026104,0.482502,-45.1521,25.74203,1002.026
5.073851109,6.039951,-62.44176,54.06376,0.1192106,0.6760176,-0.6050964,0.482502,-45.1521,25.74203,1002.025
5.078859806,5.487568,-62.98652,54.12489,0.115463,0.6626402,-0.5993941,-0.2244835,-45.56203,27.03367,1002.025
5.083868980,6.530958,-63.16811,54.06376,0.1237225,0.6577672,-0.5946967,-0.2244835,-45.56203,27.03367,1002.025
5.088877678,8.617737,-62.86546,53.69695,0.1226078,0.6599272,-0.5835735,-0.2244835,-45.56203,27.03367,1002.025
5.093886375,10.70452,-62.19964,53.14672,0.1296422,0.6665404,-0.5698017,-0.2244835,-45.56203,27.03367,1002.025
5.098895550,12.66854,-61.41276,52.53536,0.1261176,0.6712193,-0.5634104,-0.2244835,-45.56203,27.03367,1002.025
5.103905678,14.5712,-61.11012,51.7406,0.1404967,0.7067499,-0.5494305,-0.2244835,-45.56203,27.03367,1002.025
5.108912945,16.16697,-60.74694,50.8847,0.1462031,0.7166717,-0.5523629,-0.2244835,-45.56203,27.03367,1002.025
5.113922119,18.25375,-60.44429,49.90652,0.1430248,0.7346553,-0.5507476,-0.2244835,-45.56203,27.03367,1002.023
5.118930817,20.58603,-60.32323,48.98949,0.1440738,0.7383952,-0.5635691,-0.2244835,-45.56203,27.03367,1002.023
5.123939514,23.28657,-60.80747,48.56153,0.1370009,0.7412809,-0.5865898,-0.2244835,-45.56203,27.03367,1002.023
5.128948689,26.29399,-61.47329,48.31699,0.1226058,0.7368625,-0.5945813,0.05780983,-44.42407,27.50711,1002.023
5.133957386,28.31939,-61.83647,48.37813,0.112585,0.7391027,-0.6128494,0.05780983,-44.42407,27.50711,1002.023
5.138965607,29.73103,-62.01805,48.25586,0.1083501,0.7337881,-0.6178963,0.05780983,-44.42407,27.50711,1002.023
5.143975258,29.97654,-61.77594,48.37813,0.1019935,0.7241129,-0.6461933,0.05780983,-44.42407,27.50711,1002.023
5.148983479,30.34479,-61.65488,48.56153,0.09695698,0.717167,-0.6652443,0.05780983,-44.42407,27.50711,1002.023
5.153992176,30.46754,-61.77594,48.68381,0.1050041,0.7174835,-0.6939867,0.05780983,-44.42407,27.50711,1002.025
5.159001827,29.97654,-61.53382,48.80608,0.1103565,0.7317499,-0.7154967,0.05780983,-44.42407,27.50711,1002.025
5.164012909,28.87177,-61.53382,48.56153,0.1224605,0.7445254,-0.7317143,0.05780983,-44.42407,27.50711,1002.025
5.169018745,26.10986,-61.41276,48.31699,0.1347885,0.7602159,-0.7266769,0.05780983,-44.42407,27.50711,1002.025
5.174027920,20.52465,-61.17064,48.19472,0.1486292,0.7545102,-0.7450228,0.05780983,-44.42407,27.50711,1002.025
5.179036617,13.65056,-60.868,48.19472,0.1520437,0.7781934,-0.7325578,0.7986622,-44.43053,29.21775,1002.025
5.184045792,4.873809,-61.04959,48.62267,0.158455,0.7960768,-0.7207657,0.7986622,-44.43053,29.21775,1002.025
5.189054489,-4.209818,-60.56535,48.43926,0.166613,0.7975223,-0.7148679,0.7986622,-44.43053,29.21775,1002.025
5.194059372,-10.47016,-59.89953,48.25586,0.174362,0.7760684,-0.7319481,0.7986622,-44.43053,29.21775,1002.025
5.199068546,-14.15271,-58.99158,47.8279,0.1797152,0.7645926,-0.7183998,0.7986622,-44.43053,29.21775,1002.025
5.204077244,-16.976,-58.2047,48.07245,0.1862498,0.7490975,-0.7198889,0.7986622,-44.43053,29.21775,1002.025
5.209086895,-19.06277,-57.781,48.31699,0.1982875,0.7635862,-0.6851089,0.7986622,-44.43053,29.21775,1002.025
5.214095116,-20.41304,-57.23623,47.76677,0.2092112,0.7748305,-0.6788124,0.7986622,-44.43053,29.21775,1002.025
5.219103813,-21.82469,-56.752,47.33882,0.2161853,0.7797845,-0.6569358,0.7986622,-44.43053,29.21775,1002.025
5.224114418,-21.94744,-55.723,46.66632,0.2178005,0.7645452,-0.6517344,0.7986622,-44.43053,29.21775,1002.025
5.229121685,-21.0268,-54.81506,46.1161,0.2105765,0.7569721,-0.6458439,0.3902893,-42.97388,28.3766,1002.025
5.234130383,-20.10616,-53.72552,45.93269,0.2081135,0.7487631,-0.6308033,0.3902893,-42.97388,28.3766,1002.027
5.239138603,-19.61516,-52.21229,45.32133,0.2044288,0.7555816,-0.6118391,0.3902893,-42.97388,28.3766,1002.027
5.244148254,-18.7559,-49.9727,44.03748,0.2048984,0.7535337,-0.6075881,0.3902893,-42.97388,28.3766,1002.027
5.249156475,-16.91462,-47.43047,42.32568,0.2093939,0.7463493,-0.6107021,0.3902893,-42.97388,28.3766,1002.027
5.254168034,-14.15271,-45.37246,40.79728,0.2068903,0.7301127,-0.6276803,0.3902893,-42.97388,28.3766,1002.027
5.259174347,-10.04052,-43.25393,39.69684,0.2106018,0.7152818,-0.6383001,0.3902893,-42.97388,28.3766,1002.027
5.264183044,-6.664852,-42.22493,38.59639,0.2014983,0.7118592,-0.6438015,0.3902893,-42.97388,28.3766,1002.027
5.269191742,-4.884952,-41.68017,38.10731,0.1924752,0.7045918,-0.6518508,0.3902893,-42.97388,28.3766,1002.027
5.274200916,-5.80559,-41.25646,37.74049,0.1763824,0.7111761,-0.6512712,0.3902893,-42.97388,28.3766,1002.027
5.279209614,-7.462739,-41.07487,36.76232,0.1600143,0.7111888,-0.6619956,0.04273891,-44.04994,27.90276,1002.027
5.284222126,-8.935759,-40.77223,35.47847,0.1410367,0.7022821,-0.6894211,0.04273891,-44.04994,27.90276,1002.027
5.289227486,-8.62888,-41.1354,33.95007,0.1183522,0.6901919,-0.7290149,0.04273891,-44.04994,27.90276,1002.027
5.294236183,-4.455321,-42.04335,33.27758,0.08587775,0.6637333,-0.7865455,0.04273891,-44.04994,27.90276,1002.027
5.299244881,3.523541,-43.19341,33.1553,0.05228724,0.6535656,-0.8521157,0.04273891,-44.04994,27.90276,1002.027
5.304254055,13.65056,-44.2224,34.07234,0.01020168,0.6456863,-0.8960564,0.04273891,-44.04994,27.90276,1002.027
5.309262753,22.1818,-45.37246,34.50029,-0.02791081,0.6505696,-0.9197736,0.04273891,-44.04994,27.90276,1002.027
5.314271450,27.0305,-46.40146,35.11165,-0.06226887,0.6577412,-0.9347195,0.04273891,-44.04994,27.90276,1002.027
5.319280624,27.09187,-47.55152,34.25575,-0.09860489,0.6683221,-0.9505153,0.04273891,-44.04994,27.90276,1002.027
5.324289322,23.77757,-48.88317,32.42167,-0.1294218,0.66934,-0.9714279,0.04273891,-44.04994,27.90276,1002.027
5.329298019,18.49925,-50.94117,30.46533,-0.1505093,0.664031,-0.9872043,0.0284586,-43.73985,28.36312,1002.027
5.334307194,12.91405,-52.93864,28.14216,-0.1772572,0.640834,-0.9936237,0.0284586,-43.73985,28.36312,1002.027
5.339315891,8.556361,-54.20976,26.12468,-0.1960232,0.6152724,-1.018798,0.0284586,-43.73985,28.36312,1002.027
5.344324589,7.267468,-56.20723,23.98493,-0.212776,0.5934533,-1.056303,0.0284586,-43.73985,28.36312,1002.027
5.349333763,8.494986,-59.29423,22.45653,-0.2163815,0.5733502,-1.05518,0.0284586,-43.73985,28.36312,1002.027
5.354342461,8.065354,-61.53382,21.7229,-0.2110903,0.5627347,-1.036795,0.0284586,-43.73985,28.36312,1002.025
5.359350681,6.224079,-62.26017,21.47836,-0.2036948,0.5645155,-1.004464,0.0284586,-43.73985,28.36312,1002.025
5.364360333,2.664279,-62.56282,21.17268,-0.17401,0.572683,-0.9803292,0.0284586,-43.73985,28.36312,1002.025
5.369368553,-1.632032,-61.47329,21.41722,-0.1489949,0.59115,-0.9404711,0.0284586,-43.73985,28.36312,1002.025
5.374377251,-7.278611,-60.44429,21.84517,-0.1225172,0.5896153,-0.9210603,0.0284586,-43.73985,28.36312,1002.025
5.379386902,-12.49556,-59.17317,23.00675,-0.07633834,0.5935295,-0.892608,-0.3106651,-43.37796,29.21097,1002.025
5.384395123,-17.09875,-57.41782,24.16833,-0.05016408,0.6054001,-0.8621191,-0.3106651,-43.37796,29.21097,1002.025
5.389403820,-21.21093,-55.35982,24.77969,-0.0352423,0.6239145,-0.8305225,-0.3106651,-43.37796,29.21097,1002.025
5.394412994,-24.77073,-52.63599,24.59629,-0.0160629,0.6523409,-0.8023527,-0.3106651,-43.37796,29.21097,1002.024
5.399417877,-27.10301,-49.12529,23.92379,0.004913957,0.6659657,-0.7872221,-0.3106651,-43.37796,29.21097,1002.024
5.404426575,-27.34852,-45.2514,22.5788,0.01451692,0.6714502,-0.785962,-0.3106651,-43.37796,29.21097,1002.024
5.409435749,-24.52523,-41.55911,20.68359,0.01238242,0.663525,-0.8031011,-0.3106651,-43.37796,29.21097,1002.024
5.414444447,-20.7813,-38.77476,18.4827,0.009683643,0.6528773,-0.8088171,-0.3106651,-43.37796,29.21097,1002.024
5.419453144,-17.28288,-36.65623,17.87134,0.01516206,0.6437212,-0.8105553,-0.3106651,-43.37796,29.21097,1002.024
5.424462319,-15.99398,-35.38511,18.78838,-0.001501137,0.6521115,-0.8041465,-0.3106651,-43.37796,29.21097,1002.024
5.429471016,-17.09875,-35.26405,20.31678,-0.009573081,0.6678888,-0.7949731,0.7658854,-42.97209,28.83997,1002.024
5.434483528,-20.65855,-35.32458,22.21199,-0.004259586,0.6884776,-0.7744395,0.7658854,-42.97209,28.83997,1002.022
5.439488888,-26.05962,-34.84034,23.37357,-0.006643075,0.7095908,-0.7602047,0.7658854,-42.97209,28.83997,1002.022
5.444497109,-32.07446,-34.35611,23.80152,-0.0006829705,0.7265375,-0.7503744,0.7658854,-42.97209,28.83997,1002.022
5.449505806,-38.27342,-33.26658,23.61811,0.01368564,0.7303876,-0.7390413,0.7658854,-42.97209,28.83997,1002.022
5.454515457,-43.73587,-32.41917,22.70107,0.01807486,0.7199192,-0.7273857,0.7658854,-42.97209,28.83997,1002.022
5.459523678,-48.76869,-31.75334,22.3954,0.02678205,0.7114313,-0.7141727,0.7658854,-42.97209,28.83997,1002.022
5.464533329,-53.55601,-31.81387,22.63994,0.02821393,0.7013046,-0.6982074,0.7658854,-42.97209,28.83997,1002.022
5.469541550,-58.6502,-32.23758,23.80152,0.03070017,0.7053846,-0.6629523,0.7658854,-42.97209,28.83997,1002.022
5.474550247,-63.80578,-33.44817,24.9631,0.03149122,0.7029522,-0.6423758,0.7658854,-42.97209,28.83997,1002.02
5.479559422,-67.48833,-33.81134,25.6356,0.02301485,0.7032661,-0.6198601,1.937902,-43.31153,27.54805,1002.02
