Time (s),Gyroscope X (deg/s),Gyroscope Y (deg/s),Gyroscope Z (deg/s),Accelerometer X (g),Accelerometer Y (g),Accelerometer Z (g),Magnetometer X (uT),Magnetometer Y (uT),Magnetometer Z (uT),Barometer (hPa)
0.000000000,0.2876766,0.8957703,0.1938763,0.1231015,0.8966051,-0.3914945,-14.89971,-47.40762,14.36766,1002.001
0.005010128,0.1035491,0.8352408,-0.05066701,0.1227263,0.8928222,-0.3969275,-14.89971,-47.40762,14.36766,1002.001
0.010020256,0.1649249,1.198417,0.01046882,0.1212298,0.8937076,-0.3940248,-14.89971,-47.40762,14.36766,1002.001
0.015030861,0.1035491,1.016829,-0.1118028,0.1182801,0.8955818,-0.3925398,-14.89971,-47.40762,14.36766,1002.001
0.020040512,0.1035491,1.077358,-0.2952103,0.1154659,0.8932384,-0.3984214,-14.90575,-47.41348,14.82494,1002.001
0.025050640,-0.2033302,1.077358,-0.6008895,0.1159093,0.8916323,-0.3922318,-14.90575,-47.41348,14.82494,1002.001
0.030060768,-0.08057852,1.137888,-0.2340745,0.1178392,0.8976986,-0.3996709,-14.90575,-47.41348,14.82494,1002.001
0.035070419,-0.1419544,1.016829,-0.417482,0.1149523,0.8921521,-0.3941431,-14.90575,-47.41348,14.82494,1002.001
0.040080547,-0.3874578,1.077358,-0.6008895,0.1168313,0.8955721,-0.3930343,-14.90575,-47.41348,14.82494,1002.001
0.045091152,-0.08057852,1.016829,-0.5397537,0.120229,0.8910931,-0.3874067,-14.90575,-47.41348,14.82494,1002.001
0.050100803,-0.2033302,1.258947,-0.6620253,0.114408,0.8925061,-0.3888492,-14.90575,-47.41348,14.82494,1002.001
0.055110931,-0.326082,1.380006,-0.7231612,0.1178496,0.8911613,-0.391751,-14.90575,-47.41348,14.82494,1002.001
0.060121059,-0.2647061,1.380006,-0.7231612,0.1179491,0.8863522,-0.394816,-14.90575,-47.41348,14.82494,1002.001
0.065131664,-0.1419544,1.380006,-0.8454328,0.1167995,0.8929718,-0.3864065,-14.90575,-47.41348,14.82494,1002.001
0.070141315,-0.2033302,1.561594,-0.8454328,0.1208203,0.8868135,-0.3918884,-14.12656,-47.77146,14.37615,1002.001
0.075151443,-0.5102096,1.622123,-0.9065686,0.1168424,0.8920652,-0.3893236,-14.12656,-47.77146,14.37615,1002.001
0.080161571,-0.4488337,1.501064,-1.089976,0.1149435,0.8855686,-0.3843031,-14.12656,-47.77146,14.37615,1002.001
0.085171222,-0.5102096,1.501064,-0.784297,0.1154505,0.8891631,-0.3913691,-14.12656,-47.77146,14.37615,1002.001
0.087676525,-0.2033302,1.501064,-1.089976,0.1164115,0.8856244,-0.3857287,-14.12656,-47.77146,14.37615,1002.001
0.092686653,-0.6329613,1.682653,-1.151112,0.1201679,0.8959942,-0.3881819,-14.12656,-47.77146,14.37615,1002.001
0.097696304,-0.6329613,1.561594,-1.151112,0.1153387,0.8924281,-0.3849994,-14.12656,-47.77146,14.37615,1002.001
0.102703094,-0.6943371,1.561594,-1.151112,0.1168207,0.8915083,-0.386462,-14.12656,-47.77146,14.37615,1002.001
0.107713222,-0.8170888,1.682653,-1.02884,0.115395,0.8875154,-0.3837443,-14.12656,-47.77146,14.37615,1002.001
0.112722873,-0.755713,1.622123,-1.02884,0.1162645,0.8923386,-0.3806696,-14.12656,-47.77146,14.37615,1002.001
0.117733002,-0.755713,1.682653,-0.9677045,0.1177304,0.8939039,-0.3839598,-14.16064,-46.70306,14.8439,1002.001
0.122743130,-1.062592,1.622123,-1.151112,0.1177357,0.8959358,-0.3872459,-14.16064,-46.70306,14.8439,1002.001
0.127753734,-1.185344,1.864241,-1.151112,0.1134819,0.8915854,-0.3917759,-14.16064,-46.70306,14.8439,1002.001
0.132763386,-1.492223,1.92477,-1.151112,0.1188058,0.8876111,-0.3856305,-14.16064,-46.70306,14.8439,1001.999
0.137773514,-1.799103,1.622123,-0.8454328,0.117377,0.8906779,-0.3922543,-14.16064,-46.70306,14.8439,1001.999
0.142783165,-1.737727,1.622123,-1.089976,0.1202596,0.8886424,-0.3870192,-14.16064,-46.70306,14.8439,1001.999
0.147793770,-2.105982,1.864241,-0.9677045,0.1236444,0.89019,-0.3883699,-14.16064,-46.70306,14.8439,1001.999
0.152803898,-2.167358,1.92477,-1.02884,0.1202151,0.8930789,-0.3887728,-14.16064,-46.70306,14.8439,1001.999
0.157814026,-2.351485,2.045829,-1.02884,0.1234999,0.8974151,-0.3842524,-14.16064,-46.70306,14.8439,1001.999
0.162823677,-2.351485,2.045829,-1.089976,0.122108,0.894513,-0.3862979,-14.16064,-46.70306,14.8439,1001.999
0.167833805,-2.719741,2.227418,-1.089976,0.1273854,0.8964846,-0.3837708,-14.88982,-47.78677,14.36397,1001.999
0.172844410,-2.228734,2.045829,-1.089976,0.120175,0.8955064,-0.3882003,-14.88982,-47.78677,14.36397,1001.999
0.177854538,-2.167358,2.287947,-1.151112,0.1234876,0.895871,-0.3809478,-14.88982,-47.78677,14.36397,1001.999
0.182864189,-1.921854,2.227418,-1.456791,0.1216043,0.8944598,-0.3843827,-14.88982,-47.78677,14.36397,1001.999
0.187874317,-1.676351,2.287947,-1.395655,0.1223713,0.901561,-0.3744953,-14.88982,-47.78677,14.36397,1001.999
0.192884445,-1.921854,2.530065,-1.640199,0.1191055,0.8962606,-0.3795327,-14.88982,-47.78677,14.36397,1001.999
0.197895050,-2.167358,2.651124,-1.517927,0.1171608,0.8987404,-0.3823397,-14.88982,-47.78677,14.36397,1001.999
0.202904701,-2.228734,2.772182,-1.823606,0.1205663,0.8968042,-0.3809398,-14.88982,-47.78677,14.36397,1001.999
0.207914829,-1.921854,2.469535,-1.823606,0.121017,0.8957205,-0.3761718,-14.88982,-47.78677,14.36397,1001.999
0.212924480,-2.228734,2.651124,-1.945878,0.1210572,0.893293,-0.3767442,-14.88982,-47.78677,14.36397,1001.999
0.217934608,-1.921854,2.711653,-1.823606,0.121644,0.8900119,-0.382149,-13.75483,-47.38465,14.38594,1001.999
0.222945213,-1.492223,2.590594,-1.884742,0.1215866,0.8908839,-0.3777919,-13.75483,-47.38465,14.38594,1001.999
0.227955341,-0.8170888,2.409006,-1.76247,0.1250209,0.8890168,-0.3792721,-13.75483,-47.38465,14.38594,1001.999
0.232964992,-0.9398406,2.469535,-1.579063,0.1201876,0.8884696,-0.3798189,-13.75483,-47.38465,14.38594,1001.999
0.237975120,-0.3874578,2.166888,-1.640199,0.1202664,0.8871445,-0.3856345,-13.75483,-47.38465,14.38594,1001.999
0.242985248,-0.1419544,1.864241,-1.273384,0.1245351,0.8935498,-0.3853507,-13.75483,-47.38465,14.38594,1001.999
0.247995853,0.0421732,1.561594,-1.151112,0.1216419,0.8915215,-0.3840136,-13.75483,-47.38465,14.38594,1001.999
0.253005504,-0.2647061,1.561594,-0.9065686,0.120231,0.8895835,-0.3855421,-13.75483,-47.38465,14.38594,1001.999
0.258015632,-0.5715854,1.440535,-0.8454328,0.1176668,0.8982942,-0.3837934,-13.75483,-47.38465,14.38594,1001.999
0.263025284,-1.062592,1.258947,-1.02884,0.1171856,0.8922375,-0.3758598,-13.75483,-47.38465,14.38594,1001.999
0.268035412,-1.492223,1.137888,-0.784297,0.1132456,0.8955611,-0.3743289,-14.12053,-47.7656,13.91887,1001.999
0.273046017,-1.185344,1.016829,-0.9065686,0.1119178,0.8902891,-0.379347,-14.12053,-47.7656,13.91887,1001.999
0.278056145,-1.123968,0.8957703,-0.784297,0.1098886,0.8900419,-0.3702459,-14.12053,-47.7656,13.91887,1001.999
0.283065796,-0.6943371,0.7747114,-0.784297,0.1074283,0.892945,-0.3706392,-14.12053,-47.7656,13.91887,1001.999
0.288075924,-0.1419544,0.6536525,-0.6620253,0.1158318,0.8884174,-0.3803424,-14.12053,-47.7656,13.91887,1001.999
0.293086052,0.1649249,0.4720642,-0.6008895,0.1162633,0.8872877,-0.3736543,-14.12053,-47.7656,13.91887,1001.997
0.298096657,0.5331801,0.1694171,-0.417482,0.1168364,0.8870028,-0.3818282,-14.12053,-47.7656,13.91887,1001.997
0.303102493,1.331066,0.4720642,-0.417482,0.1158363,0.8874189,-0.3794193,-14.12053,-47.7656,13.91887,1001.997
0.308112144,1.699321,0.1694171,-0.3563462,0.1138313,0.8882394,-0.3741215,-14.12053,-47.7656,13.91887,1001.997
0.313122272,2.128953,-0.01217122,-0.417482,0.115374,0.889989,-0.3850919,-14.12053,-47.7656,13.91887,1001.997
0.318132400,2.128953,-0.2542889,-0.3563462,0.1134332,0.8884396,-0.3827666,-14.89585,-47.79263,14.82124,1001.997
0.323143005,2.497208,-0.2542889,-0.1729387,0.111514,0.8874473,-0.3833029,-14.89585,-47.79263,14.82124,1001.997
0.328152656,2.374456,-0.2542889,-0.2952103,0.1071359,0.8944087,-0.3912477,-14.89585,-47.79263,14.82124,1001.997
0.333162784,2.190328,-0.4358772,-0.2340745,0.1086627,0.8900627,-0.3923597,-14.89585,-47.79263,14.82124,1001.997
0.338172912,2.251704,-0.3753478,-0.05066701,0.1066633,0.8939254,-0.3917511,-14.89585,-47.79263,14.82124,1001.997
0.343183517,2.128953,-0.3753478,-0.2952103,0.1071281,0.891866,-0.3870201,-14.89585,-47.79263,14.82124,1001.997
0.348193168,2.128953,-0.7385244,-0.3563462,0.1100989,0.8875182,-0.3871575,-14.89585,-47.79263,14.82124,1001.997
0.353207111,2.435832,-0.6174655,-0.1729387,0.1095603,0.8919244,-0.3879559,-14.89585,-47.79263,14.82124,1001.997
0.358212948,2.619959,-0.6174655,-0.05066701,0.1120756,0.8886487,-0.3923814,-14.89585,-47.79263,14.82124,1001.997
0.363223076,2.865463,-1.16223,-0.1729387,0.1150228,0.8862637,-0.3929249,-14.89585,-47.79263,14.82124,1001.997
0.368237972,3.233718,-1.101701,-0.2340745,0.1145923,0.8818433,-0.3921361,-14.13259,-47.77732,14.83343,1001.997
0.373243809,3.663349,-1.16223,-0.05066701,0.1228359,0.8804656,-0.3906695,-14.13259,-47.77732,14.83343,1002.003
0.378253460,3.786101,-1.22276,0.01046882,0.1122172,0.8799027,-0.3941543,-14.13259,-47.77732,14.83343,1002.003
0.383263588,3.908852,-1.041172,-0.2952103,0.1131453,0.8793139,-0.389363,-14.13259,-47.77732,14.83343,1002.003
0.388273716,4.09298,-1.101701,-0.1118028,0.1137091,0.880016,-0.3979799,-14.13259,-47.77732,14.83343,1002.003
0.393284321,4.399859,-0.9806421,-0.1729387,0.1136422,0.8808649,-0.3926628,-14.13259,-47.77732,14.83343,1002.003
0.398293972,4.277108,-0.8595833,-0.1118028,0.1131678,0.8829013,-0.3964338,-14.13259,-47.77732,14.83343,1002.003
0.403304100,4.277108,-0.4358772,-0.1729387,0.1142343,0.879616,-0.4013537,-14.13259,-47.77732,14.83343,1002.003
0.408314228,4.215732,-0.7385244,-0.3563462,0.1132938,0.8786607,-0.4028404,-14.13259,-47.77732,14.83343,1002.003
0.413323879,4.338484,-0.3753478,-0.4786178,0.1112651,0.8804339,-0.3965455,-14.13259,-47.77732,14.83343,1002.001
0.418334484,4.031604,-0.5569361,-0.6620253,0.1146405,0.8829686,-0.3983394,-13.73503,-48.14296,14.37854,1002.001
0.423344612,4.277108,-0.4358772,-0.7231612,0.1191785,0.8728573,-0.4015643,-13.73503,-48.14296,14.37854,1002.001
0.428354263,3.970228,-0.1937595,-0.6620253,0.119034,0.8800824,-0.3974468,-13.73503,-48.14296,14.37854,1002.001
0.433364391,4.09298,-0.1332301,-0.7231612,0.11718,0.8807607,-0.406568,-13.73503,-48.14296,14.37854,1002.001
0.438374519,4.645363,-0.01217122,-0.9065686,0.120585,0.8768041,-0.4023619,-13.73503,-48.14296,14.37854,1002.001
0.443385124,4.583987,0.1694171,-0.8454328,0.1141732,0.8845171,-0.4021288,-13.73503,-48.14296,14.37854,1002.001
0.448394775,4.706739,0.1694171,-1.02884,0.1151346,0.8829987,-0.3992946,-13.73503,-48.14296,14.37854,1002.001
0.453404903,4.522611,0.2299465,-1.089976,0.1121607,0.8838052,-0.3940063,-13.73503,-48.14296,14.37854,1002.003
0.458415031,4.277108,0.2904759,-1.151112,0.1170442,0.8839681,-0.3977982,-13.73503,-48.14296,14.37854,1002.003
0.463424682,4.461236,0.5325937,-1.089976,0.1150859,0.889444,-0.4033743,-13.73503,-48.14296,14.37854,1002.003
0.468435287,4.154356,0.2904759,-1.151112,0.1122041,0.884919,-0.3997296,-15.28351,-47.80615,15.27243,1002.003
0.473447800,4.154356,0.2904759,-1.151112,0.1156108,0.8880337,-0.4053451,-15.28351,-47.80615,15.27243,1002.003
0.478455067,4.215732,0.4720642,-0.8454328,0.1184921,0.8905382,-0.4061837,-15.28351,-47.80615,15.27243,1002.003
0.483465195,3.908852,0.4720642,-1.089976,0.116953,0.8933403,-0.401767,-15.28351,-47.80615,15.27243,1002.003
0.488475323,3.540597,0.4720642,-1.151112,0.108718,0.8907002,-0.3985814,-15.28351,-47.80615,15.27243,1002.003
0.493485927,3.295094,0.7747114,-1.089976,0.1179099,0.8928205,-0.3998558,-15.28351,-47.80615,15.27243,1002.001
0.498495579,2.497208,0.6536525,-1.02884,0.1178791,0.8942609,-0.3988403,-15.28351,-47.80615,15.27243,1002.001
0.503501892,2.742711,0.7747114,-0.9677045,0.1188817,0.8943558,-0.4021908,-15.28351,-47.80615,15.27243,1002.001
0.508511543,2.435832,0.7747114,-0.7231612,0.1151187,0.8864941,-0.4025252,-15.28351,-47.80615,15.27243,1002.001
0.513522148,2.742711,0.4115348,-0.8454328,0.1188982,0.8928807,-0.4017662,-15.28351,-47.80615,15.27243,1002.001
0.518532276,2.742711,0.6536525,-0.6620253,0.1169836,0.8908896,-0.4013795,-14.52025,-47.79084,15.28461,1002.001
0.523541927,3.110966,0.5931231,-0.784297,0.1160236,0.8888781,-0.399543,-14.52025,-47.79084,15.28461,1002.001
0.528552055,2.926839,0.4720642,-0.784297,0.1135223,0.890168,-0.3937515,-14.52025,-47.79084,15.28461,1002.001
0.533562183,2.865463,0.4115348,-0.417482,0.1114686,0.8974339,-0.3925334,-14.52025,-47.79084,15.28461,1002.001
0.538572788,2.558583,0.4720642,-0.6008895,0.1116062,0.8917068,-0.3980355,-14.52025,-47.79084,15.28461,1002.001
0.543582439,2.681335,0.6536525,-0.4786178,0.1149816,0.8942415,-0.3998293,-14.52025,-47.79084,15.28461,1002.001
0.548592567,2.190328,0.1694171,-0.3563462,0.1180675,0.8805791,-0.398398,-14.52025,-47.79084,15.28461,1002.001
0.553602695,2.128953,0.04835821,-0.417482,0.1069241,0.8824366,-0.4013152,-14.52025,-47.79084,15.28461,1002.001
0.558612347,2.067577,0.04835821,-0.1118028,0.1128075,0.8811733,-0.4061129,-14.52025,-47.79084,15.28461,1002.001
0.563623905,1.944825,-0.1937595,0.01046882,0.1112855,0.8855309,-0.405481,-14.52025,-47.79084,15.28461,1002.001
0.568633079,2.128953,-0.3148184,0.01046882,0.1108606,0.8841525,-0.4093814,-14.52412,-47.40583,14.83103,1002.001
0.573643207,1.944825,-0.5569361,0.1327405,0.1075162,0.8811875,-0.4100061,-14.52412,-47.40583,14.83103,1002.001
0.578652859,2.128953,-0.5569361,0.1938763,0.1132799,0.8806465,-0.4042065,-14.52412,-47.40583,14.83103,1002.001
0.583662987,1.883449,-0.6174655,0.1938763,0.1093237,0.8864551,-0.4045032,-14.52412,-47.40583,14.83103,1002.001
0.588673592,1.883449,-0.677995,0.316148,0.1121586,0.8853147,-0.395871,-14.52412,-47.40583,14.83103,1002.001
0.593683243,1.392442,-0.677995,0.3772838,0.1068524,0.883274,-0.395518,-14.52412,-47.40583,14.83103,1002.001
0.598693371,1.146939,-0.7990538,0.07160465,0.1096585,0.8916554,-0.3970948,-14.52412,-47.40583,14.83103,1002.001
0.603703499,1.024187,-0.3753478,-0.05066701,0.1130019,0.8905796,-0.3908578,-14.52412,-47.40583,14.83103,1002.001
0.608717441,0.7786835,-0.2542889,-0.2340745,0.1072089,0.8890312,-0.3909712,-14.52412,-47.40583,14.83103,1002.001
0.613723755,0.8400594,0.1694171,-0.5397537,0.1132766,0.8771051,-0.3990557,-14.52412,-47.40583,14.83103,1001.999
0.618733883,1.085563,0.4115348,-0.7231612,0.1141429,0.8783869,-0.3908303,-14.53618,-47.41755,15.74558,1001.999
0.623744011,1.699321,0.714182,-1.089976,0.1155432,0.8762611,-0.3827295,-14.53618,-47.41755,15.74558,1001.999
0.628753662,2.067577,0.8352408,-1.151112,0.1209759,0.8760815,-0.3922952,-14.53618,-47.41755,15.74558,1001.999
0.633763790,2.374456,0.6536525,-1.212248,0.1219429,0.8776052,-0.3941502,-14.53618,-47.41755,15.74558,1001.999
0.638774395,2.804087,0.714182,-1.395655,0.1219545,0.8761187,-0.3932456,-14.53618,-47.41755,15.74558,1001.999
0.643784046,3.295094,0.7747114,-1.212248,0.1242478,0.8864443,-0.3947533,-14.53618,-47.41755,15.74558,1001.999
0.648794174,3.540597,0.714182,-1.151112,0.1260677,0.8932559,-0.392555,-14.53618,-47.41755,15.74558,1001.999
0.653804302,3.601973,0.5931231,-1.212248,0.1236189,0.8936623,-0.3906406,-14.53618,-47.41755,15.74558,1001.999
0.658813953,3.970228,0.8352408,-1.640199,0.1211801,0.896112,-0.3924924,-14.53618,-47.41755,15.74558,1001.999
0.663824558,4.829491,1.258947,-2.251557,0.1248684,0.8842542,-0.4049213,-14.53618,-47.41755,15.74558,1001.999
0.668836117,6.425263,1.440535,-2.862915,0.1192678,0.8755958,-0.4139524,-13.76086,-47.39051,14.84321,1001.999
0.673844814,7.223149,1.077358,-2.80178,0.1203727,0.8724026,-0.4227124,-13.76086,-47.39051,14.84321,1001.999
0.678854465,7.100397,0.714182,-2.251557,0.1279768,0.8741792,-0.4105608,-13.76086,-47.39051,14.84321,1001.999
0.683864593,5.934256,0.1694171,-2.06815,0.1292889,0.8839567,-0.4101765,-13.76086,-47.39051,14.84321,1001.999
0.688875198,4.338484,-0.1332301,-1.945878,0.1241912,0.8903468,-0.3946053,-13.76086,-47.39051,14.84321,1001.999
0.693884849,2.374456,0.1694171,-1.884742,0.1217593,0.8912985,-0.3950725,-13.76086,-47.39051,14.84321,1001.999
0.698894977,1.085563,0.8352408,-2.434964,0.1222173,0.8907372,-0.391726,-13.76086,-47.39051,14.84321,1001.999
0.703900814,1.57657,1.682653,-3.046323,0.1131582,0.8828782,-0.3954737,-13.76086,-47.39051,14.84321,1001.999
0.708911419,2.865463,1.92477,-3.474274,0.1051388,0.8701553,-0.3993967,-13.76086,-47.39051,14.84321,1001.999
0.713924885,4.461236,1.622123,-3.046323,0.11214,0.8596722,-0.4059761,-13.77293,-47.40224,15.75777,1001.999
0.718931675,5.566001,0.6536525,-2.312693,0.1229438,0.8526028,-0.4099874,-13.77293,-47.40224,15.75777,1001.999
0.723941326,6.17976,-0.1332301,-1.701334,0.1317153,0.8523461,-0.4142392,-13.77293,-47.40224,15.75777,1001.999
0.728953361,6.363887,-0.6174655,-1.089976,0.1339152,0.8629522,-0.407088,-13.77293,-47.40224,15.75777,1001.999
0.733962059,5.566001,-0.7990538,-0.7231612,0.1284398,0.8746395,-0.4090974,-13.77293,-47.40224,15.75777,1001.998
0.738971710,4.768115,-1.16223,-0.7231612,0.1248661,0.8847535,-0.4053828,-13.77293,-47.40224,15.75777,1001.998
0.743983269,4.031604,-0.7385244,-0.7231612,0.1208691,0.8899592,-0.4008978,-13.77293,-47.40224,15.75777,1001.998
0.748991966,3.908852,-0.07270065,-1.151112,0.112125,0.894825,-0.4056,-13.77293,-47.40224,15.75777,1001.998
0.754001617,4.522611,0.714182,-2.06815,0.108975,0.8832406,-0.4132778,-13.77293,-47.40224,15.75777,1001.998
0.759012222,5.995632,1.077358,-2.4961,0.1087594,0.8752977,-0.4284775,-13.77293,-47.40224,15.75777,1001.998
0.764022350,7.714156,1.198417,-2.862915,0.1077644,0.8767355,-0.4279517,-14.92003,-47.10339,15.28529,1001.998
0.769032478,9.064425,1.137888,-2.924051,0.1063926,0.8779203,-0.4375295,-14.92003,-47.10339,15.28529,1001.998
0.774042129,9.616808,1.380006,-2.985187,0.1037867,0.8829975,-0.4267899,-14.92003,-47.10339,15.28529,1001.996
0.779052257,9.43268,1.380006,-2.924051,0.1096522,0.886739,-0.4366829,-14.92003,-47.10339,15.28529,1001.996
0.784062862,8.266539,1.440535,-3.168595,0.1104495,0.8903793,-0.4250049,-14.92003,-47.10339,15.28529,1001.996
0.789072990,7.284525,1.9853,-3.107459,0.1042066,0.8929451,-0.4340955,-14.92003,-47.10339,15.28529,1001.996
0.794082642,5.750128,2.045829,-3.352002,0.1022986,0.8884459,-0.4309211,-14.92003,-47.10339,15.28529,1001.996
0.799092770,4.952242,2.106359,-3.290866,0.09937229,0.8883573,-0.42903,-14.92003,-47.10339,15.28529,1001.996
0.804103374,3.970228,2.287947,-3.290866,0.09375478,0.8791536,-0.4356795,-14.92003,-47.10339,15.28529,1001.996
0.809113026,3.663349,2.227418,-3.107459,0.09524522,0.8732058,-0.4310867,-14.92003,-47.10339,15.28529,1001.996
0.814123154,3.970228,2.287947,-2.985187,0.09539495,0.8680126,-0.4384904,-14.15455,-47.4099,15.75167,1001.996
0.819133282,4.031604,2.166888,-2.985187,0.09293375,0.8668749,-0.4332713,-14.15455,-47.4099,15.75167,1001.996
0.824142933,4.522611,2.348476,-2.862915,0.09294739,0.8638789,-0.4305021,-14.15455,-47.4099,15.75167,1001.996
0.829153061,4.768115,2.651124,-3.046323,0.09186472,0.8696495,-0.4274098,-14.15455,-47.4099,15.75167,1001.996
0.834163666,4.768115,2.590594,-2.924051,0.08711223,0.8662676,-0.4319077,-14.15455,-47.4099,15.75167,1001.996
0.839173794,4.522611,2.651124,-2.80178,0.09095176,0.8637124,-0.4247613,-14.15455,-47.4099,15.75167,1001.996
0.844183445,4.461236,2.832712,-2.740644,0.09049123,0.8637629,-0.4271662,-14.15455,-47.4099,15.75167,1001.996
0.849193573,4.215732,2.832712,-2.80178,0.09110149,0.8585192,-0.4321649,-14.15455,-47.4099,15.75167,1001.996
0.854203224,4.399859,3.0143,-2.618372,0.09297062,0.8609059,-0.428693,-14.15455,-47.4099,15.75167,1001.996
0.859213829,4.215732,2.772182,-2.618372,0.08811206,0.8648414,-0.4329135,-14.15455,-47.4099,15.75167,1001.994
0.864223957,4.461236,3.0143,-2.679508,0.092425,0.8658001,-0.429473,-13.77293,-47.40224,15.75777,1001.994
0.869234085,4.583987,2.953771,-2.373829,0.09444664,0.8645147,-0.4357494,-13.77293,-47.40224,15.75777,1001.994
0.874243736,4.645363,2.832712,-2.557236,0.09135924,0.872116,-0.4287622,-13.77293,-47.40224,15.75777,1001.994
0.879253864,4.768115,3.135359,-2.557236,0.1011774,0.8654973,-0.4318047,-13.77293,-47.40224,15.75777,1001.994
0.884264469,4.768115,3.316947,-2.557236,0.09577089,0.8748261,-0.4372666,-13.77293,-47.40224,15.75777,1001.994
0.889274597,4.583987,3.316947,-2.312693,0.09526313,0.8777919,-0.4390806,-13.77293,-47.40224,15.75777,1001.994
0.894284248,4.399859,3.07483,-2.373829,0.09764734,0.8777352,-0.4352163,-13.77293,-47.40224,15.75777,1001.994
0.899294376,3.970228,3.256418,-2.4961,0.0937313,0.8811164,-0.4360855,-13.77293,-47.40224,15.75777,1001.994
0.904300690,3.479221,3.377477,-2.251557,0.1014363,0.884145,-0.4354174,-13.77293,-47.40224,15.75777,1001.994
0.909310818,2.926839,3.680124,-2.4961,0.1024854,0.8782939,-0.4351496,-13.77293,-47.40224,15.75777,1001.994
0.914320946,2.681335,3.619595,-2.4961,0.1025031,0.8818698,-0.4417404,-13.79324,-47.09801,16.6754,1001.994
0.919330597,2.31308,3.740653,-2.618372,0.1004512,0.8866161,-0.4372546,-13.79324,-47.09801,16.6754,1001.994
0.924340725,2.006201,3.861712,-2.4961,0.1052956,0.8836562,-0.4329971,-13.79324,-47.09801,16.6754,1001.994
0.929351330,1.822073,3.982771,-2.373829,0.1048901,0.8833341,-0.4402207,-13.79324,-47.09801,16.6754,1001.994
0.934361458,1.637946,4.16436,-2.4961,0.1047335,0.8900253,-0.4342016,-13.79324,-47.09801,16.6754,1001.994
0.939375401,1.822073,4.224889,-2.312693,0.103488,0.8783886,-0.4385,-13.79324,-47.09801,16.6754,1001.992
0.944381237,1.331066,4.16436,-2.434964,0.1062527,0.8841467,-0.432489,-13.79324,-47.09801,16.6754,1001.992
0.949390888,1.146939,4.16436,-2.06815,0.105312,0.8821812,-0.4325726,-13.79324,-47.09801,16.6754,1001.992
0.954401970,0.7786835,4.285418,-2.06815,0.1043632,0.876663,-0.4270254,-13.79324,-47.09801,16.6754,1001.992
0.959411621,0.2876766,4.10383,-1.701334,0.1071354,0.8839535,-0.423839,-13.79324,-47.09801,16.6754,1001.992
0.964421749,-0.2033302,4.345948,-1.701334,0.1052226,0.8794428,-0.4201846,-13.3814,-47.77374,15.76016,1001.992
0.969431400,-0.6943371,4.406477,-1.456791,0.1086284,0.8785167,-0.4201878,-13.3814,-47.77374,15.76016,1001.992
0.974441528,-0.6943371,4.709124,-2.251557,0.1072049,0.8740245,-0.4170085,-13.3814,-47.77374,15.76016,1001.992
0.979452133,-0.3874578,5.072301,-2.373829,0.1154889,0.8712295,-0.4175175,-13.3814,-47.77374,15.76016,1001.992
0.984462261,0.4718042,5.556536,-2.862915,0.1133431,0.85621,-0.423875,-13.3814,-47.77374,15.76016,1001.992
0.989471912,1.822073,5.556536,-3.168595,0.1190767,0.8601398,-0.4212691,-13.3814,-47.77374,15.76016,1001.992
0.994482040,2.067577,5.556536,-3.168595,0.1177774,0.8719526,-0.4054559,-13.3814,-47.77374,15.76016,1001.992
0.999492168,1.883449,5.19336,-2.924051,0.1210506,0.8777753,-0.4018402,-13.3814,-47.77374,15.76016,1001.992
1.004502773,1.57657,4.769654,-2.924051,0.1245263,0.8785315,-0.4109082,-13.3814,-47.77374,15.76016,1001.992
1.009512424,1.26969,4.588065,-2.862915,0.1235482,0.8805147,-0.412764,-13.3814,-47.77374,15.76016,1001.992
1.014522552,1.760697,4.467007,-3.046323,0.1251252,0.8757844,-0.4182146,-13.38743,-47.77961,16.21744,1001.992
1.019532203,2.374456,4.406477,-3.290866,0.1232002,0.8803307,-0.4257477,-13.38743,-47.77961,16.21744,1001.998
1.024542331,3.04959,4.224889,-3.535409,0.1160625,0.8729649,-0.4284976,-13.38743,-47.77961,16.21744,1001.998
1.029552936,3.540597,3.922242,-3.596545,0.1113277,0.873159,-0.4395862,-13.38743,-47.77961,16.21744,1001.998
1.034563064,3.908852,3.619595,-3.718817,0.1107331,0.8834881,-0.4430429,-13.38743,-47.77961,16.21744,1001.998
1.039572716,3.110966,3.135359,-3.535409,0.1072326,0.8892347,-0.4404547,-13.38743,-47.77961,16.21744,1001.998
1.044582844,2.006201,2.711653,-3.596545,0.1046608,0.896413,-0.4358813,-13.38743,-47.77961,16.21744,1001.998
1.049592972,0.8400594,2.590594,-3.657681,0.1024301,0.8872473,-0.442017,-13.38743,-47.77961,16.21744,1001.998
1.054603576,-0.2033302,2.166888,-3.718817,0.09773066,0.8754113,-0.440109,-13.38743,-47.77961,16.21744,1001.998
1.059613228,-0.8170888,1.864241,-3.596545,0.09147106,0.878442,-0.4482211,-13.38743,-47.77961,16.21744,1001.996
1.064623356,-1.123968,1.622123,-3.474274,0.0957926,0.875383,-0.4401283,-13.40558,-47.0845,16.22422,1001.996
1.069633007,-1.123968,1.077358,-3.290866,0.09102976,0.8689476,-0.4394569,-13.40558,-47.0845,16.22422,1001.996
1.074643612,-0.755713,0.9562997,-3.22973,0.088108,0.8678604,-0.4366427,-13.40558,-47.0845,16.22422,1001.996
1.079653740,-0.326082,0.7747114,-3.046323,0.08582507,0.8605884,-0.4403043,-13.40558,-47.0845,16.22422,1001.996
1.084663868,0.5331801,0.1694171,-2.862915,0.08391909,0.8545796,-0.4352653,-13.40558,-47.0845,16.22422,1001.996
1.089673519,1.208315,0.1694171,-2.862915,0.0859872,0.8473483,-0.4379235,-13.40558,-47.0845,16.22422,1001.996
1.094683647,1.944825,-0.2542889,-2.4961,0.08350957,0.8476855,-0.433129,-13.40558,-47.0845,16.22422,1001.996
1.099694252,2.067577,-0.677995,-2.434964,0.08650455,0.8444054,-0.4370695,-13.40558,-47.0845,16.22422,1001.994
1.104704380,2.619959,-0.8595833,-2.251557,0.08457607,0.8444,-0.4380489,-13.40558,-47.0845,16.22422,1001.994
1.109710216,2.988214,-1.041172,-2.007014,0.0893566,0.8448205,-0.4322219,-13.40558,-47.0845,16.22422,1001.994
1.114719868,2.926839,-1.343819,-1.823606,0.08747863,0.8454413,-0.438943,-13.77293,-47.40224,15.75777,1001.994
1.119729996,3.295094,-1.646466,-1.76247,0.08937351,0.8453659,-0.4346035,-13.77293,-47.40224,15.75777,1001.994
1.124740600,3.601973,-1.828054,-1.823606,0.08600361,0.8458733,-0.4374989,-13.77293,-47.40224,15.75777,1001.994
1.129750728,4.031604,-1.949113,-1.517927,0.08541026,0.8516624,-0.4348818,-13.77293,-47.40224,15.75777,1001.994
1.134764671,4.154356,-2.372819,-1.33452,0.08641945,0.8492491,-0.4354446,-13.77293,-47.40224,15.75777,1001.994
1.139770508,4.215732,-2.433348,-1.212248,0.08679538,0.8560625,-0.4342209,-13.77293,-47.40224,15.75777,1001.998
1.144780636,4.277108,-2.857054,-0.9065686,0.08640428,0.8557749,-0.4428845,-13.77293,-47.40224,15.75777,1001.998
1.149791240,3.908852,-3.038643,-0.6620253,0.09060813,0.8615196,-0.4354189,-13.77293,-47.40224,15.75777,1001.998
1.154800892,3.540597,-3.099172,-0.6008895,0.09161099,0.8626246,-0.4401724,-13.77293,-47.40224,15.75777,1001.998
1.159811020,2.926839,-3.099172,-0.3563462,0.08958456,0.8638985,-0.4334161,-13.77293,-47.40224,15.75777,1001.998
1.164821148,2.31308,-3.34129,-0.2952103,0.08918435,0.8656082,-0.4439257,-13.39733,-47.40045,16.22113,1001.998
1.169830799,1.699321,-3.159702,-0.1729387,0.09048011,0.8672697,-0.4308769,-13.39733,-47.40045,16.22113,1001.998
1.174841404,1.392442,-3.038643,0.07160465,0.08754166,0.8762383,-0.4401733,-13.39733,-47.40045,16.22113,1001.998
1.179851532,1.024187,-3.159702,0.2550122,0.09053287,0.8673964,-0.436157,-13.39733,-47.40045,16.22113,1001.998
1.184861183,1.024187,-3.038643,0.3772838,0.09483315,0.8753918,-0.441098,-13.39733,-47.40045,16.22113,1001.998
1.189871311,1.331066,-2.917584,0.682963,0.09341041,0.8739302,-0.4421279,-13.39733,-47.40045,16.22113,1001.998
1.194881439,1.760697,-3.220231,0.8052347,0.09429612,0.8762683,-0.4372256,-13.39733,-47.40045,16.22113,1001.998
1.199892044,1.944825,-2.978113,0.8052347,0.09336343,0.8778558,-0.4429401,-13.39733,-47.40045,16.22113,1001.998
1.204901695,2.006201,-2.917584,0.7440988,0.09920997,0.8729705,-0.4392269,-13.39733,-47.40045,16.22113,1001.998
1.209911823,1.822073,-2.554407,0.8663705,0.09820658,0.8794361,-0.4447564,-13.39733,-47.40045,16.22113,1001.998
1.214921951,1.637946,-2.917584,0.8052347,0.09523232,0.8792324,-0.4380651,-13.78499,-47.41397,16.67232,1001.998
1.219932556,1.085563,-2.796525,0.9275063,0.09624151,0.876819,-0.4386279,-13.78499,-47.41397,16.67232,1001.998
1.224942207,0.4104283,-3.099172,1.233185,0.1006001,0.8783923,-0.4404491,-13.78499,-47.41397,16.67232,1001.998
1.229952335,-0.2033302,-2.493878,1.233185,0.09432238,0.8758265,-0.4391642,-13.78499,-47.41397,16.67232,1001.998
1.234961986,-0.5715854,-2.675466,1.416593,0.0967942,0.8714371,-0.4378664,-13.78499,-47.41397,16.67232,1001.998
1.239972114,-1.062592,-2.735996,1.6,0.0971901,0.8717362,-0.4296828,-13.78499,-47.41397,16.67232,1001.998
1.244982719,-0.6943371,-2.978113,1.844544,0.09872446,0.8689227,-0.4336194,-13.78499,-47.41397,16.67232,1001.998
1.249992847,-0.2647061,-2.917584,2.33363,0.09573756,0.8757556,-0.4353096,-13.78499,-47.41397,16.67232,1001.998
1.255002498,0.1649249,-2.917584,2.517038,0.09765366,0.8742169,-0.4310256,-13.78499,-47.41397,16.67232,1001.998
1.260012626,0.2876766,-2.857054,2.883853,0.0946221,0.8748851,-0.4199772,-13.78499,-47.41397,16.67232,1002
1.265022754,-0.01920266,-2.796525,3.067261,0.097204,0.8697503,-0.4283167,-13.40336,-47.40631,16.67841,1002
1.270033359,-0.1419544,-2.796525,3.311804,0.1001214,0.8728465,-0.433457,-13.40336,-47.40631,16.67841,1002
1.275043011,-0.755713,-2.675466,3.80089,0.1063719,0.8718131,-0.427191,-13.40336,-47.40631,16.67841,1002
1.280053139,-0.8784647,-2.614937,3.862026,0.1141896,0.8650163,-0.4240126,-13.40336,-47.40631,16.67841,1002
1.285062790,-1.308096,-2.25176,4.228841,0.1141805,0.8670136,-0.4258586,-13.40336,-47.40631,16.67841,1002
1.290072918,-1.308096,-1.888584,4.351113,0.1224289,0.8656476,-0.4248721,-13.40336,-47.40631,16.67841,1002
1.295083523,-1.860479,-1.706995,4.228841,0.1248439,0.8641503,-0.4220233,-13.40336,-47.40631,16.67841,1002
1.300093651,-2.290109,-1.585936,4.167706,0.1275877,0.8723821,-0.4173598,-13.40336,-47.40631,16.67841,1002
1.305103302,-2.596989,-1.525407,4.289977,0.1305637,0.8700661,-0.4207834,-13.40336,-47.40631,16.67841,1002
1.310109615,-2.412861,-1.464878,4.412249,0.1367594,0.8704156,-0.4111018,-13.39346,-47.78547,16.67472,1002
1.315119266,-2.412861,-1.283289,4.412249,0.1367786,0.8704617,-0.4130219,-13.39346,-47.78547,16.67472,1002
1.320129871,-1.737727,-1.16223,4.228841,0.1334021,0.8734772,-0.418705,-13.39346,-47.78547,16.67472,1002
1.322634697,-1.369472,-1.16223,4.289977,0.1328585,0.8768618,-0.4176203,-13.39346,-47.78547,16.67472,1002
1.327645302,-0.2033302,-0.8595833,4.289977,0.1357469,0.8788786,-0.4184774,-13.39346,-47.78547,16.67472,1002
1.332655430,0.4718042,-1.101701,4.351113,0.1338619,0.8799871,-0.42518,-13.39346,-47.78547,16.67472,1002
1.337666035,1.392442,-0.9806421,4.656792,0.1393226,0.8768461,-0.4334166,-13.39346,-47.78547,16.67472,1002
1.342675209,1.760697,-0.7990538,4.473385,0.1407117,0.8878181,-0.4421157,-13.39346,-47.78547,16.67472,1002
1.347684860,1.392442,-0.4358772,5.023607,0.1405943,0.888041,-0.4310568,-13.39346,-47.78547,16.67472,1002
1.352694988,0.3490525,-0.5569361,5.207015,0.1480244,0.8855082,-0.4430958,-13.39346,-47.78547,16.67472,1002
1.357705593,-1.123968,-0.07270065,5.268151,0.153672,0.890241,-0.4332526,-13.39346,-47.78547,16.67472,1002
1.362715721,-3.210747,0.4720642,5.329287,0.1581205,0.8869822,-0.4371787,-13.41161,-47.09036,16.68149,1002
1.367725372,-5.174775,1.077358,5.512694,0.1590477,0.8823525,-0.4267751,-13.41161,-47.09036,16.68149,1002
1.372735500,-7.200178,1.622123,5.57383,0.1639835,0.8806219,-0.433041,-13.41161,-47.09036,16.68149,1002
1.377745628,-8.243567,2.166888,5.57383,0.1712048,0.8770829,-0.4234977,-13.41161,-47.09036,16.68149,1002
1.382756233,-8.734574,2.832712,5.57383,0.1736589,0.8691176,-0.4156092,-13.41161,-47.09036,16.68149,1002
1.387765884,-8.427695,3.195889,5.512694,0.1767789,0.8575562,-0.4203441,-13.41161,-47.09036,16.68149,1002
1.392776012,-7.629809,4.10383,5.512694,0.1873941,0.8535675,-0.4103055,-13.41161,-47.09036,16.68149,1002
1.397789001,-6.954675,4.527536,5.512694,0.1884308,0.8461722,-0.4067331,-13.41161,-47.09036,16.68149,1002
1.402795791,-6.27954,5.253889,5.512694,0.1953502,0.8344832,-0.4037492,-13.41161,-47.09036,16.68149,1002
1.407806396,-6.340916,5.980242,5.634965,0.1996005,0.834282,-0.3926653,-13.41161,-47.09036,16.68149,1002
1.412816524,-6.954675,6.585536,5.451558,0.2058086,0.8361756,-0.3862884,-13.3814,-47.77374,15.76016,1002
1.417826176,-7.138802,7.31189,5.57383,0.2102513,0.8288644,-0.3841223,-13.3814,-47.77374,15.76016,1002
1.422836304,-7.813937,8.219831,5.390422,0.2135957,0.8318294,-0.3834975,-13.3814,-47.77374,15.76016,1002
1.427846908,-8.304943,8.946184,5.207015,0.2121273,0.8297532,-0.3792658,-13.3814,-47.77374,15.76016,1002
1.432857036,-8.120816,9.551478,5.268151,0.2140694,0.8267625,-0.3755173,-13.3814,-47.77374,15.76016,1002
1.437866688,-7.629809,10.09624,4.8402,0.2183561,0.828163,-0.3701382,-13.3814,-47.77374,15.76016,1002
1.442878246,-6.893299,10.39889,4.595656,0.2135922,0.8272778,-0.3769436,-13.3814,-47.77374,15.76016,1002
1.447886467,-5.972661,10.94366,4.779064,0.2183475,0.8321807,-0.3747904,-13.3814,-47.77374,15.76016,1002
1.452897072,-4.49964,11.36736,4.595656,0.2196733,0.8389623,-0.371637,-13.3814,-47.77374,15.76016,1002
1.457907200,-3.640378,11.60948,4.473385,0.2162395,0.8428498,-0.3729629,-13.3814,-47.77374,15.76016,1002
1.462917328,-3.333499,12.21477,4.167706,0.2181237,0.8483016,-0.3751402,-13.77896,-47.4081,16.21504,1002
1.467926979,-3.579003,12.51742,4.228841,0.2194907,0.8566964,-0.3781715,-13.77896,-47.4081,16.21504,1002
1.472937107,-4.070009,12.94113,3.617483,0.2221715,0.8723489,-0.3775509,-13.77896,-47.4081,16.21504,1002
1.477947712,-5.113399,13.54642,3.434075,0.2206566,0.8762187,-0.3769374,-13.77896,-47.4081,16.21504,1002
1.482957840,-5.849909,13.84907,3.067261,0.2244428,0.8811074,-0.3747938,-13.77896,-47.4081,16.21504,1002
1.487967491,-6.709171,14.39383,2.822717,0.2180262,0.888809,-0.3740807,-13.77896,-47.4081,16.21504,1002
1.492977619,-7.629809,14.87807,2.272495,0.2191624,0.8861957,-0.3866624,-13.77896,-47.4081,16.21504,1002
1.497987270,-8.182192,15.30177,1.966815,0.2204081,0.8892515,-0.3706779,-13.77896,-47.4081,16.21504,1002
1.502998352,-8.489071,15.84654,1.355457,0.2169498,0.8910611,-0.3667976,-13.77896,-47.4081,16.21504,1002
1.508004188,-9.041454,16.57289,0.8663705,0.2194005,0.8881351,-0.3654444,-13.77896,-47.4081,16.21504,1002
1.513013840,-9.225581,16.93607,0.3772838,0.2223313,0.8872249,-0.3664124,-14.53015,-47.41169,15.28831,1002
1.518023968,-9.532461,17.60189,-0.2340745,0.2169753,0.8875888,-0.364527,-14.53015,-47.41169,15.28831,1002
1.523034096,-9.716588,18.14666,-0.8454328,0.2153461,0.8942127,-0.3566023,-14.53015,-47.41169,15.28831,1002
1.528044701,-9.041454,18.69142,-1.517927,0.2139812,0.8843085,-0.3517064,-14.53015,-47.41169,15.28831,1002
1.533054352,-8.857327,18.93354,-2.06815,0.2066829,0.8866529,-0.3521664,-14.53015,-47.41169,15.28831,1002
1.538064480,-8.36632,19.78095,-3.107459,0.2086893,0.8823023,-0.3527935,-14.53015,-47.41169,15.28831,1002
1.543074608,-7.32293,19.72042,-4.024496,0.2022346,0.8813309,-0.3365542,-14.53015,-47.41169,15.28831,1002
1.548085213,-6.893299,20.38625,-4.880398,0.1978399,0.8791663,-0.3304313,-14.53015,-47.41169,15.28831,1002
1.553094864,-5.972661,20.80995,-5.919707,0.1942024,0.8650435,-0.3343663,-14.53015,-47.41169,15.28831,1002
1.558104992,-4.80652,21.1126,-6.653337,0.1887864,0.8647584,-0.3257791,-14.53015,-47.41169,15.28831,1002
1.563114643,-3.947258,21.17313,-7.325831,0.1831383,0.8580052,-0.3328161,-13.76303,-47.78139,15.75407,1002
1.568124771,-2.290109,21.47578,-8.181733,0.1739191,0.852286,-0.3239909,-13.76303,-47.78139,15.75407,1002
1.573135376,-1.308096,21.47578,-8.854227,0.1754626,0.8474752,-0.3260814,-13.76303,-47.78139,15.75407,1002
1.578145504,-0.326082,21.41525,-9.465586,0.1657427,0.8442339,-0.3190886,-13.76303,-47.78139,15.75407,1002
1.583155155,0.6559318,21.47578,-9.648993,0.1590236,0.8417648,-0.3221288,-13.76303,-47.78139,15.75407,1002
1.588165283,1.822073,21.35472,-10.32149,0.1435731,0.8371249,-0.3214896,-13.76303,-47.78139,15.75407,1002
1.593175411,2.558583,21.17313,-10.81057,0.143154,0.8302078,-0.3183932,-13.76303,-47.78139,15.75407,1002
1.598186016,3.35647,20.99154,-11.23852,0.131588,0.8301876,-0.3247492,-13.76303,-47.78139,15.75407,1002
1.603195667,4.154356,20.80995,-11.78875,0.1300483,0.8309693,-0.3175265,-13.76303,-47.78139,15.75407,1002
1.608205795,4.706739,20.56783,-12.33897,0.1220779,0.840428,-0.3095536,-14.88982,-47.78677,14.36397,1002
1.613215446,5.013618,20.38625,-12.88919,0.1191728,0.8388761,-0.307718,-14.88982,-47.78677,14.36397,1002
1.618225574,6.057008,20.14413,-13.68396,0.1119058,0.8418003,-0.3119996,-14.88982,-47.78677,14.36397,1002
1.623236179,7.100397,20.0836,-14.41759,0.1074073,0.8464536,-0.3051379,-14.88982,-47.78677,14.36397,1002
1.628246307,8.512042,20.0836,-15.27349,0.1049625,0.8438409,-0.2994943,-14.88982,-47.78677,14.36397,1002
1.633255958,10.6602,19.84148,-16.06825,0.1019332,0.8536009,-0.3010735,-14.88982,-47.78677,14.36397,1002
1.638269901,13.11523,19.65989,-16.92416,0.09744325,0.8638273,-0.3026487,-14.88982,-47.78677,14.36397,1002
1.643276215,15.87715,19.35725,-17.53551,0.09303561,0.8676891,-0.3035042,-14.88982,-47.78677,14.36397,1002
1.648286819,18.33218,19.0546,-18.20801,0.08907133,0.8795358,-0.3112594,-14.88982,-47.78677,14.36397,1002
1.653296471,20.84859,18.69142,-18.81937,0.08742686,0.8926857,-0.3107746,-14.88982,-47.78677,14.36397,1002
1.658306599,22.38299,18.32825,-19.24732,0.08402512,0.9001837,-0.3201314,-14.12269,-48.15648,14.82973,1002
1.663316250,23.05812,18.20719,-19.49186,0.08098922,0.9124517,-0.3244982,-14.12269,-48.15648,14.82973,1001.998
1.668326378,22.56711,18.08613,-20.04208,0.07754609,0.9173264,-0.3262672,-14.12269,-48.15648,14.82973,1001.998
1.673336983,21.8306,17.54136,-19.91981,0.06934185,0.922837,-0.3371862,-14.12269,-48.15648,14.82973,1001.998
1.678347111,20.66446,17.11766,-20.16436,0.06969781,0.9361647,-0.3429224,-14.12269,-48.15648,14.82973,1001.998
1.683356762,19.31419,16.63342,-20.10322,0.06997124,0.945256,-0.3348859,-14.12269,-48.15648,14.82973,1001.998
1.688366890,18.39355,16.57289,-20.4089,0.06152559,0.9633116,-0.3395641,-14.12269,-48.15648,14.82973,1001.998
1.693377018,18.14805,15.90707,-20.89799,0.05617395,0.9616666,-0.3353525,-14.12269,-48.15648,14.82973,1001.998
1.698387623,19.13007,16.20971,-21.9373,0.05566897,0.9661535,-0.339511,-14.12269,-48.15648,14.82973,1001.998
1.703397274,20.60309,15.9676,-22.24298,0.05047839,0.9664096,-0.3534846,-14.12269,-48.15648,14.82973,1002
1.708403110,22.32161,15.54389,-22.36525,0.05232379,0.969749,-0.3490157,-14.52025,-47.79084,15.28461,1002
1.713413238,22.81262,14.63595,-21.9373,0.06087085,0.9825826,-0.3494081,-14.52025,-47.79084,15.28461,1002
1.718423843,22.44436,13.66748,-21.57048,0.06636008,0.9965264,-0.3368135,-14.52025,-47.79084,15.28461,1002
1.723433971,21.03272,13.06219,-21.20366,0.06595986,1.016262,-0.325015,-14.52025,-47.79084,15.28461,1002
1.728443623,19.49832,12.94113,-21.38707,0.05933969,1.03458,-0.3190949,-14.52025,-47.79084,15.28461,1002
1.733453751,18.20943,13.48589,-21.87616,0.05733141,1.04145,-0.3217354,-14.52025,-47.79084,15.28461,1002
1.738463879,17.90255,13.97013,-22.30411,0.05629345,1.043795,-0.3182925,-14.52025,-47.79084,15.28461,1002
1.743474483,17.04329,14.09119,-22.54865,0.06209376,1.045865,-0.3196007,-14.52025,-47.79084,15.28461,1001.998
1.748484135,16.18402,13.66748,-22.30411,0.0775988,1.048112,-0.3222524,-14.52025,-47.79084,15.28461,1001.998
1.753494263,14.64963,13.3043,-21.57048,0.09062773,1.047167,-0.3154388,-14.52025,-47.79084,15.28461,1001.998
1.758504391,12.62422,12.8806,-21.08139,0.1089257,1.05322,-0.3121534,-13.3715,-48.15289,15.75647,1001.998
1.763514042,9.923687,13.3043,-20.65344,0.1083814,1.053574,-0.3068595,-13.3715,-48.15289,15.75647,1001.998
1.768524647,7.714156,13.48589,-20.10322,0.1131001,1.055865,-0.2975985,-13.3715,-48.15289,15.75647,1001.998
1.773538589,5.13637,13.66748,-19.67527,0.1071619,1.058512,-0.2893851,-13.3715,-48.15289,15.75647,1001.998
1.778544426,3.04959,14.27277,-19.00278,0.1149124,1.051554,-0.2794864,-13.3715,-48.15289,15.75647,1001.998
1.783554554,2.006201,15.05966,-19.06391,0.1084022,1.030909,-0.2779306,-13.3715,-48.15289,15.75647,1002
1.788565159,1.392442,15.84654,-18.81937,0.1084161,1.001306,-0.2857836,-13.3715,-48.15289,15.75647,1002
1.793575287,1.883449,16.33077,-18.81937,0.1063011,0.9752552,-0.2800674,-13.3715,-48.15289,15.75647,1002
1.798584938,2.251704,16.75448,-18.57483,0.1036695,0.9551777,-0.2794145,-13.3715,-48.15289,15.75647,1002
1.803597927,2.067577,16.93607,-18.08574,0.1039327,0.9335986,-0.2754279,-13.3715,-48.15289,15.75647,1002
1.808605194,2.128953,16.81501,-17.53551,0.09910976,0.9265141,-0.2680548,-13.36763,-48.53791,16.21005,1002
1.813614845,2.006201,16.87554,-16.98529,0.08633388,0.9038374,-0.2671156,-13.36763,-48.53791,16.21005,1002
1.818625450,1.944825,16.63342,-16.61848,0.08454078,0.8890134,-0.2609694,-13.36763,-48.53791,16.21005,1002
1.823635578,2.128953,16.93607,-16.25166,0.07286569,0.8841882,-0.2502113,-13.36763,-48.53791,16.21005,1002
1.828645229,2.619959,16.81501,-15.76258,0.06962889,0.8703762,-0.2464426,-13.36763,-48.53791,16.21005,1002
1.833655357,3.786101,16.93607,-15.51803,0.05870494,0.8581217,-0.2513361,-13.36763,-48.53791,16.21005,1002
1.838665485,5.627377,16.87554,-15.51803,0.05263576,0.8459609,-0.2571413,-13.36763,-48.53791,16.21005,1002
1.843676090,7.836908,16.81501,-15.27349,0.04689429,0.8394883,-0.2555195,-13.36763,-48.53791,16.21005,1002
1.848685741,10.41469,16.9966,-15.39576,0.04271115,0.8302597,-0.2602344,-13.36763,-48.53791,16.21005,1002
1.853695869,13.11523,16.87554,-15.21235,0.03554918,0.8314171,-0.2722703,-13.36763,-48.53791,16.21005,1002
1.858705997,15.32476,16.93607,-15.33463,0.04220236,0.8387759,-0.2695253,-11.89266,-48.49683,15.31885,1002
1.863715649,16.4909,16.9966,-15.6403,0.03785536,0.8357162,-0.2667995,-11.89266,-48.49683,15.31885,1002.004
1.868726253,17.22742,17.23872,-15.70144,0.0383386,0.8402633,-0.2728685,-11.89266,-48.49683,15.31885,1002.004
1.873736382,16.85916,17.54136,-15.76258,0.04034837,0.8394542,-0.2786464,-11.89266,-48.49683,15.31885,1002.004
1.878746033,15.87715,17.66242,-16.19053,0.03641794,0.8428007,-0.2780756,-11.89266,-48.49683,15.31885,1002.004
1.883756161,14.77238,18.4493,-16.37393,0.03896627,0.8375853,-0.283055,-11.89266,-48.49683,15.31885,1002.004
1.888766766,13.60624,18.57036,-16.61848,0.04178071,0.8409389,-0.2785765,-11.89266,-48.49683,15.31885,1002.004
1.893776894,13.60624,19.11513,-16.67961,0.03598367,0.8424096,-0.282419,-11.89266,-48.49683,15.31885,1002.004
1.898786545,14.15862,19.35725,-16.92416,0.03414331,0.8400918,-0.288771,-11.89266,-48.49683,15.31885,1002.004
1.903796673,15.87715,19.59936,-16.86302,0.03409861,0.843518,-0.2891216,-11.89266,-48.49683,15.31885,1002.004
1.908802509,17.90255,20.02307,-16.92416,0.03414733,0.8466637,-0.298131,-11.89266,-48.49683,15.31885,1002.004
1.913813114,20.0507,20.26519,-16.92416,0.03204816,0.8543253,-0.2930543,-11.89266,-48.49683,15.31885,1002.004
1.918823242,21.5851,20.62836,-17.22984,0.0372753,0.866272,-0.2992776,-11.89266,-48.49683,15.31885,1002.004
1.923833370,23.05812,20.68889,-17.10756,0.03466155,0.8783975,-0.2973994,-11.89266,-48.49683,15.31885,1002.004
1.928843021,23.79463,21.1126,-17.29097,0.03900778,0.8880176,-0.3090051,-11.89266,-48.49683,15.31885,1002.004
1.933853149,23.67188,21.47578,-17.29097,0.03785011,0.9006751,-0.308054,-11.89266,-48.49683,15.31885,1002.004
1.938863754,22.87399,21.96001,-17.78006,0.03724841,0.9114922,-0.3114921,-11.89266,-48.49683,15.31885,1002.004
1.943873405,21.95336,22.44425,-17.90233,0.03519292,0.9212778,-0.3135417,-11.89266,-48.49683,15.31885,1002.006
1.948883533,21.09409,23.23113,-18.14687,0.04393212,0.9259912,-0.3214487,-11.89266,-48.49683,15.31885,1002.006
1.953893661,20.23483,24.01801,-18.75823,0.04390434,0.9299629,-0.3241809,-11.89266,-48.49683,15.31885,1002.006
1.958903313,19.43694,24.62331,-19.06391,0.04386241,0.9349101,-0.3268761,-11.50933,-49.26508,16.68938,1002.006
1.963913918,19.00731,25.10754,-19.36959,0.04863108,0.9358068,-0.3205506,-11.50933,-49.26508,16.68938,1002.006
1.968924046,18.76181,25.71284,-19.67527,0.04664149,0.9407027,-0.3223051,-11.50933,-49.26508,16.68938,1002.006
1.973934174,18.88456,26.37866,-20.28663,0.05045953,0.9481917,-0.3267893,-11.50933,-49.26508,16.68938,1002.006
1.978943825,19.00731,27.04448,-20.65344,0.05443792,0.9449604,-0.3321603,-11.50933,-49.26508,16.68938,1002.006
1.983958721,18.88456,27.8919,-20.77571,0.05826432,0.9474216,-0.3305892,-11.50933,-49.26508,16.68938,1002.006
1.988964558,19.25282,28.49719,-21.32594,0.05539584,0.9484814,-0.3358614,-11.50933,-49.26508,16.68938,1002.006
1.993974209,19.06869,29.64725,-21.69275,0.05734299,0.9465124,-0.3339959,-11.50933,-49.26508,16.68938,1002.006
1.998984337,18.63906,30.49466,-22.05957,0.06269819,0.943118,-0.3316722,-11.50933,-49.26508,16.68938,1002.006
2.003994465,17.53429,31.52366,-22.73206,0.06892797,0.9455685,-0.3281569,-11.50933,-49.26508,16.68938,1002.006
2.009004116,16.30678,32.79478,-23.28228,0.06754083,0.9426779,-0.3306824,-10.762,-48.87647,17.16253,1002.006
2.014014721,14.64963,34.4896,-23.89364,0.07875266,0.9364415,-0.3284117,-10.762,-48.87647,17.16253,1002.006
2.019024849,12.99248,36.18443,-25.11636,0.08784466,0.9137338,-0.333034,-10.762,-48.87647,17.16253,1002.006
2.024034977,11.82634,38.1819,-25.66658,0.09527023,0.9026087,-0.3329069,-10.762,-48.87647,17.16253,1002.006
2.029044628,11.33533,39.2109,-26.2168,0.1001346,0.8931346,-0.3216895,-10.762,-48.87647,17.16253,1002.006
2.034055233,10.23057,40.17937,-25.60545,0.1014708,0.8933788,-0.3106161,-10.762,-48.87647,17.16253,1002.006
2.039065361,9.494056,41.2689,-25.78885,0.1058921,0.8865208,-0.3069914,-10.762,-48.87647,17.16253,1002.006
2.044075012,10.29194,42.35843,-25.91113,0.1046602,0.8718882,-0.3085206,-10.762,-48.87647,17.16253,1002.006
2.049085140,11.94909,43.38743,-26.2168,0.1020392,0.8558745,-0.31444,-10.762,-48.87647,17.16253,1002.006
2.054095268,14.64963,44.65855,-26.64475,0.09245974,0.8484272,-0.3152939,-10.762,-48.87647,17.16253,1002.006
2.059105873,17.90255,46.11126,-27.43952,0.08543517,0.8332564,-0.3183396,-11.1178,-49.63657,16.69177,1002.006
2.064115524,21.15547,47.56396,-28.6011,0.07823886,0.8313026,-0.3228061,-11.1178,-49.63657,16.69177,1002.006
2.069125652,24.28564,49.13773,-29.39587,0.07300337,0.8243837,-0.3226381,-11.1178,-49.63657,16.69177,1002.006
2.074135780,26.00416,50.46938,-30.3129,0.06477945,0.8278278,-0.3288309,-11.1178,-49.63657,16.69177,1002.006
2.079145431,27.35443,52.22473,-31.29108,0.06510539,0.8360357,-0.3246716,-11.1178,-49.63657,16.69177,1002.006
2.084156036,27.66131,53.37479,-32.20811,0.05679638,0.8443233,-0.3292395,-11.1178,-49.63657,16.69177,1002.006
2.089166164,27.96819,55.06961,-33.18629,0.04693659,0.8568994,-0.3302953,-11.1178,-49.63657,16.69177,1002.006
2.094176292,28.27507,56.46179,-34.2256,0.04749004,0.8545481,-0.3337431,-11.1178,-49.63657,16.69177,1002.006
2.099185943,29.31846,57.91449,-35.57058,0.04301548,0.8688498,-0.3423706,-11.1178,-49.63657,16.69177,1002.006
2.104196071,30.79148,59.7909,-37.16011,0.03811776,0.8792536,-0.3516309,-11.1178,-49.63657,16.69177,1002.006
2.109202385,32.87826,61.54626,-39.1776,0.03769002,0.8859451,-0.3662759,-10.06235,-48.86244,17.1737,1002.006
2.114212513,34.96504,63.42267,-41.19508,0.03607104,0.9052136,-0.3766096,-10.06235,-48.86244,17.1737,1002.006
2.119222641,37.23594,65.29909,-43.02916,0.04136202,0.9233711,-0.3974917,-10.06235,-48.86244,17.1737,1002.006
2.124232292,40.67299,67.41762,-45.35232,0.05625495,0.9525633,-0.4245906,-10.06235,-48.86244,17.1737,1002.006
2.129242420,45.70581,69.2335,-47.67548,0.07474929,0.9772609,-0.4657611,-10.06235,-48.86244,17.1737,1002.006
2.134256363,53.50055,71.10991,-49.81523,0.09708993,1.017087,-0.524579,-10.06235,-48.86244,17.1737,1002.006
2.139263153,65.03921,72.50209,-51.83271,0.1216977,1.040064,-0.5921851,-10.06235,-48.86244,17.1737,1002.006
2.144272804,77.86676,73.71268,-54.27815,0.1342309,1.053365,-0.6506627,-10.06235,-48.86244,17.1737,1002.006
2.149282932,91.86046,73.77321,-56.11222,0.1486128,1.045931,-0.7190413,-10.06235,-48.86244,17.1737,1002.006
2.154292583,103.2764,72.86526,-58.00743,0.1435078,1.034929,-0.7728435,-10.06235,-48.86244,17.1737,1002.006
2.159303188,110.5801,71.23097,-59.29129,0.136281,1.0174,-0.8000058,-10.44615,-49.26097,18.07847,1002.006
2.164313316,112.2372,69.53615,-59.96378,0.1234134,0.9936398,-0.8356267,-10.44615,-49.26097,18.07847,1002.006
2.169323444,109.7208,67.65973,-59.71924,0.110761,0.9758025,-0.8532419,-10.44615,-49.26097,18.07847,1002.006
2.174333095,103.6446,66.20702,-59.23015,0.1070846,0.9691584,-0.8636197,-10.44615,-49.26097,18.07847,1002.006
2.179343700,95.35889,65.05697,-58.49652,0.108707,0.9736234,-0.8860181,-10.44615,-49.26097,18.07847,1002.006
2.184353828,84.06573,63.42267,-57.45721,0.1146275,0.9674014,-0.8876405,-10.44615,-49.26097,18.07847,1002.006
2.189363956,70.99267,62.33314,-56.05109,0.1159271,0.9650337,-0.8694594,-10.44615,-49.26097,18.07847,1002.006
2.194373607,56.13971,61.48573,-53.42225,0.1447189,0.9607497,-0.8357165,-10.44615,-49.26097,18.07847,1002.006
2.199383735,40.67299,60.94097,-50.48773,0.1854635,0.9587824,-0.78928,-10.44615,-49.26097,18.07847,1002.006
2.204394340,26.55655,61.4252,-48.47025,0.2361841,0.9389651,-0.7458313,-9.700984,-49.26325,19.46248,1002.006
2.209403992,15.38614,63.12003,-47.06412,0.2850808,0.9057641,-0.6952209,-9.700984,-49.26325,19.46248,1002.006
2.214414120,7.039021,65.23856,-46.08595,0.3376994,0.8607858,-0.6603994,-9.700984,-49.26325,19.46248,1002.006
2.219424248,2.742711,67.59921,-44.9855,0.3748596,0.818216,-0.6338003,-9.700984,-49.26325,19.46248,1002.006
2.224433899,2.251704,70.62567,-44.86323,0.4119829,0.7720241,-0.5986903,-9.700984,-49.26325,19.46248,1002.006
2.229444504,3.601973,74.31797,-44.49641,0.4403868,0.732776,-0.5734886,-9.700984,-49.26325,19.46248,1002.006
2.234454632,7.223149,77.94974,-44.61869,0.4628605,0.6817012,-0.5680127,-9.700984,-49.26325,19.46248,1002.006
2.239464760,13.17661,80.37091,-44.1296,0.4893063,0.6309133,-0.5720985,-9.700984,-49.26325,19.46248,1002.006
2.244474411,21.15547,82.48944,-43.51824,0.4985807,0.5894613,-0.5687832,-9.700984,-49.26325,19.46248,1002.006
2.249484539,30.91423,83.94215,-42.96802,0.5015458,0.5544546,-0.5734505,-9.700984,-49.26325,19.46248,1002.006
2.254495144,40.55024,84.91062,-42.11212,0.5074927,0.520174,-0.5862306,-9.351217,-48.50902,20.39052,1002.006
2.259504795,50.309,84.42638,-40.8894,0.5022045,0.4951027,-0.6030906,-9.351217,-48.50902,20.39052,1002.006
2.264514923,59.51538,83.51844,-40.46145,0.4947355,0.4870881,-0.6198028,-9.351217,-48.50902,20.39052,1002.012
2.269525051,67.98525,82.79209,-39.91123,0.4889657,0.4921578,-0.6311963,-9.351217,-48.50902,20.39052,1002.012
2.274534702,74.79797,81.52097,-38.74965,0.4677131,0.5071487,-0.6586949,-9.351217,-48.50902,20.39052,1002.012
2.279545307,79.58529,79.9472,-36.97671,0.4439664,0.5335428,-0.6949127,-9.351217,-48.50902,20.39052,1002.012
2.284555435,84.18848,77.70762,-35.57058,0.4288217,0.572398,-0.7363416,-9.351217,-48.50902,20.39052,1002.012
2.289565563,87.38002,75.16538,-33.91992,0.4039178,0.603879,-0.7613253,-9.351217,-48.50902,20.39052,1002.012
2.294575214,88.54617,72.19944,-31.90243,0.379577,0.6510576,-0.7684085,-9.351217,-48.50902,20.39052,1002.012
2.299585342,86.70489,69.89932,-29.02905,0.3531141,0.682264,-0.7828463,-9.351217,-48.50902,20.39052,1002.012
2.304595947,82.65408,67.23602,-26.46135,0.3229722,0.7339322,-0.7975013,-8.977786,-48.8981,21.76474,1002.012
2.309601784,76.39375,65.42014,-24.74954,0.2895015,0.7781299,-0.8081473,-8.977786,-48.8981,21.76474,1002.012
2.314611912,69.15139,63.72532,-23.89364,0.2667064,0.8104073,-0.8037703,-8.977786,-48.8981,21.76474,1002.012
2.319621563,59.76089,62.39367,-23.28228,0.2408959,0.8504588,-0.7996065,-8.977786,-48.8981,21.76474,1002.012
2.324631691,48.2836,60.81991,-23.16001,0.230757,0.8785183,-0.7947904,-8.977786,-48.8981,21.76474,1002.012
2.329642296,35.70155,59.73038,-23.22115,0.2132935,0.8987629,-0.7740035,-8.977786,-48.8981,21.76474,1002.012
2.334652424,23.1195,59.18561,-23.58796,0.19708,0.9020287,-0.7572143,-8.977786,-48.8981,21.76474,1002.012
2.339662075,10.35332,58.88297,-24.38273,0.1926757,0.89025,-0.7370423,-8.977786,-48.8981,21.76474,1002.012
2.344672203,-0.3874578,58.45926,-25.11636,0.1891634,0.877291,-0.7077772,-8.977786,-48.8981,21.76474,1002.012
2.349682808,-8.857327,58.15661,-26.0334,0.1905029,0.8618947,-0.6756763,-8.977786,-48.8981,21.76474,1002.012
2.354692936,-14.81078,57.91449,-27.50066,0.2005032,0.8439563,-0.6339806,-8.236492,-48.51537,22.69518,1002.012
2.359702587,-18.86159,57.79343,-28.53996,0.2101446,0.82076,-0.5972933,-8.236492,-48.51537,22.69518,1002.012
2.364712715,-19.84361,58.09608,-29.57928,0.2257896,0.7880076,-0.565718,-8.236492,-48.51537,22.69518,1002.012
2.369725227,-18.61609,58.27767,-30.67972,0.2316933,0.7620582,-0.5387806,-8.236492,-48.51537,22.69518,1002.012
2.374732971,-15.48592,59.24614,-32.39152,0.256557,0.7330047,-0.5132245,-8.236492,-48.51537,22.69518,1002.012
2.379743099,-10.4531,59.85144,-33.61424,0.2693737,0.6988845,-0.4874939,-8.236492,-48.51537,22.69518,1002.012
2.384753227,-4.80652,61.06202,-35.20377,0.2910468,0.6682448,-0.4793261,-8.236492,-48.51537,22.69518,1002.015
2.389762878,1.57657,62.03049,-36.18194,0.3144557,0.6437102,-0.4598582,-8.236492,-48.51537,22.69518,1002.015
2.394773006,8.082411,62.93844,-37.28239,0.3354305,0.6312277,-0.4558113,-8.236492,-48.51537,22.69518,1002.015
2.399783611,14.64963,64.02797,-38.26056,0.3499421,0.6217915,-0.4401772,-8.236492,-48.51537,22.69518,1002.015
2.404793739,20.17346,65.1175,-39.66668,0.3645832,0.6126663,-0.4375036,-9.019547,-47.77238,22.69039,1002.015
2.409803390,25.02215,66.02544,-40.8894,0.379051,0.6106971,-0.4278325,-9.019547,-47.77238,22.69039,1002.015
2.414813518,28.7047,67.11497,-42.05098,0.3810073,0.6067308,-0.424121,-9.019547,-47.77238,22.69039,1002.015
2.419823170,31.58937,67.65973,-43.39597,0.3851141,0.6177953,-0.4145319,-9.019547,-47.77238,22.69039,1002.015
2.424833774,31.15973,68.87032,-43.94619,0.3862953,0.6031751,-0.415077,-9.019547,-47.77238,22.69039,1002.015
2.429843902,31.52799,69.2335,-44.74096,0.3905833,0.5820097,-0.4259323,-9.019547,-47.77238,22.69039,1002.015
2.434854030,30.60735,70.14144,-45.23005,0.3695864,0.6025159,-0.4388037,-9.019547,-47.77238,22.69039,1002.015
2.439863682,31.40524,70.32303,-46.5139,0.3641512,0.584159,-0.4506047,-9.019547,-47.77238,22.69039,1002.015
2.444873810,32.87826,70.62567,-46.94185,0.3597413,0.5885201,-0.4519217,-9.019547,-47.77238,22.69039,1002.015
2.449884415,33.24651,70.32303,-47.24753,0.3505615,0.5869336,-0.452549,-9.019547,-47.77238,22.69039,1002.015
2.454894543,35.39467,69.53615,-47.18639,0.335877,0.604536,-0.4625885,-9.763005,-48.54599,22.67081,1002.015
2.459904194,37.29732,68.80979,-47.06412,0.3152576,0.618735,-0.4564763,-9.763005,-48.54599,22.67081,1002.015
2.464914322,37.66558,68.38609,-47.61434,0.304736,0.6414791,-0.4542685,-9.763005,-48.54599,22.67081,1002.015
2.469923973,37.8497,67.96238,-48.28684,0.2876287,0.6400101,-0.4852374,-9.763005,-48.54599,22.67081,1002.015
2.474935055,39.3841,67.53867,-49.0816,0.2794093,0.6424555,-0.4905072,-9.763005,-48.54599,22.67081,1002.015
2.479944706,39.69098,66.99391,-49.69296,0.2691668,0.6497161,-0.4941713,-9.763005,-48.54599,22.67081,1002.015
2.484954834,40.24336,65.90438,-49.9375,0.2620869,0.6530897,-0.5171735,-9.763005,-48.54599,22.67081,1002.015
2.489964485,39.81373,64.81485,-49.99864,0.2577065,0.6605505,-0.52558,-9.763005,-48.54599,22.67081,1002.015
2.494975090,39.1386,63.78585,-50.91568,0.2499297,0.6679503,-0.5335401,-9.763005,-48.54599,22.67081,1002.015
2.499985218,38.15658,62.75685,-51.52703,0.2440902,0.6723478,-0.5372717,-9.763005,-48.54599,22.67081,1002.015
2.504995346,36.31531,61.72785,-52.01612,0.2429283,0.6774232,-0.5255576,-8.630184,-48.53475,23.60364,1002.015
2.510001182,35.08779,60.45673,-52.56635,0.2448603,0.6819801,-0.5311321,-8.630184,-48.53475,23.60364,1002.015
2.515011310,33.61477,59.54879,-53.1777,0.251184,0.6861704,-0.5390818,-8.630184,-48.53475,23.60364,1002.015
2.520021915,33.92165,58.58032,-53.60566,0.2564309,0.6905925,-0.5369421,-8.630184,-48.53475,23.60364,1002.015
2.525031567,34.90366,57.55132,-54.21701,0.2528009,0.7056192,-0.5344827,-8.630184,-48.53475,23.60364,1002.015
2.530041695,36.25393,56.52232,-54.64496,0.2507724,0.7084026,-0.5295908,-8.630184,-48.53475,23.60364,1002.015
2.535051346,37.29732,54.76696,-54.88951,0.2473831,0.7078537,-0.5291631,-8.630184,-48.53475,23.60364,1002.015
2.540061474,38.15658,53.25373,-54.88951,0.2428855,0.7165476,-0.5279136,-8.630184,-48.53475,23.60364,1002.015
2.545072079,38.83172,51.67996,-55.19519,0.2432415,0.7202845,-0.5205607,-8.630184,-48.53475,23.60364,1002.015
2.550082207,38.70897,50.46938,-55.62314,0.2452125,0.7173628,-0.5196922,-8.630184,-48.53475,23.60364,1002.015
2.552586555,38.46346,49.74302,-55.62314,0.2432976,0.7143616,-0.5179024,-8.649982,-47.77645,23.61103,1002.015
2.557597160,37.23594,48.53243,-55.68427,0.2435794,0.718425,-0.5038106,-8.649982,-47.77645,23.61103,1002.015
2.562607288,36.19255,47.07973,-56.11222,0.2418054,0.7132381,-0.5126737,-8.649982,-47.77645,23.61103,1002.015
2.567617416,35.02641,45.86914,-56.2345,0.2451822,0.7112327,-0.5083937,-8.649982,-47.77645,23.61103,1002.015
2.572627067,33.18514,44.59802,-56.17336,0.2456533,0.715246,-0.5125611,-8.649982,-47.77645,23.61103,1002.015
2.577637195,31.52799,43.14531,-55.74541,0.244661,0.7182047,-0.51438,-8.649982,-47.77645,23.61103,1002.015
2.582647800,29.93222,41.51102,-54.76723,0.2382663,0.7178823,-0.5048423,-8.649982,-47.77645,23.61103,1002.015
2.587657452,28.15232,39.63461,-53.48338,0.2426772,0.7175618,-0.5091375,-8.649982,-47.77645,23.61103,1002.019
2.592667580,26.98618,37.87925,-52.44407,0.2396729,0.7218292,-0.50564,-8.649982,-47.77645,23.61103,1002.019
2.597677708,25.57453,36.24496,-51.58817,0.2409318,0.7294597,-0.4971693,-8.649982,-47.77645,23.61103,1002.019
2.602687359,24.22426,34.36855,-50.48773,0.2355122,0.7342138,-0.4951174,-7.20517,-47.76469,25.00621,1002.019
2.607697964,22.75124,32.49213,-49.63182,0.2330255,0.7365485,-0.492169,-7.20517,-47.76469,25.00621,1002.019
2.612708092,21.52372,30.43413,-48.53138,0.2229289,0.7330542,-0.4952799,-7.20517,-47.76469,25.00621,1002.019
2.617718220,20.41896,28.19454,-47.3698,0.2186034,0.7295412,-0.4940127,-7.20517,-47.76469,25.00621,1002.019
2.622727871,20.35758,25.95495,-45.96368,0.2176424,0.73308,-0.4996531,-7.20517,-47.76469,25.00621,1002.019
2.627738476,20.90997,23.71536,-44.37415,0.2199478,0.7439395,-0.5030623,-7.20517,-47.76469,25.00621,1002.021
2.632748604,21.8306,21.41525,-43.2737,0.2216659,0.7560595,-0.4982606,-7.20517,-47.76469,25.00621,1002.021
2.637758255,21.89198,19.72042,-41.92871,0.2229756,0.7653261,-0.4969348,-7.20517,-47.76469,25.00621,1002.021
2.642768383,21.21684,17.66242,-40.52259,0.2275137,0.7838419,-0.4923437,-7.20517,-47.76469,25.00621,1002.021
2.647778511,19.43694,15.90707,-39.48328,0.2216639,0.7851858,-0.4909061,-7.20517,-47.76469,25.00621,1002.021
2.652789116,17.22742,14.45436,-38.26056,0.2227172,0.7869167,-0.5014014,-6.040487,-48.50003,25.01709,1002.021
2.657798767,15.44751,13.12271,-37.22125,0.2310178,0.7932479,-0.515978,-6.040487,-48.50003,25.01709,1002.021
2.662808895,13.66761,11.79107,-36.42649,0.2359683,0.7925619,-0.525087,-6.040487,-48.50003,25.01709,1002.021
2.667819023,11.94909,10.88313,-35.38718,0.2524972,0.7934402,-0.5311447,-6.040487,-48.50003,25.01709,1002.021
2.672828674,9.494056,9.612008,-34.47014,0.2700625,0.795504,-0.5453159,-6.040487,-48.50003,25.01709,1002.021
2.677839279,7.714156,8.522478,-33.49197,0.2844086,0.8053575,-0.5400011,-6.040487,-48.50003,25.01709,1002.021
2.682849407,5.259121,7.614537,-32.75834,0.3111544,0.8120383,-0.5577544,-6.040487,-48.50003,25.01709,1002.021
2.687859535,3.724725,6.948713,-32.14698,0.3218327,0.8208209,-0.5712544,-6.040487,-48.50003,25.01709,1002.021
2.692869186,3.724725,6.464478,-31.59675,0.3350416,0.830403,-0.5962322,-6.040487,-48.50003,25.01709,1002.021
2.697879314,4.706739,5.859183,-31.22994,0.3494071,0.8509039,-0.6073297,-6.040487,-48.50003,25.01709,1002.021
2.702889919,6.486639,4.527536,-30.9854,0.3584008,0.8752638,-0.6197724,-4.593511,-48.0974,25.50142,1002.021
2.707895756,8.327914,3.195889,-30.80199,0.3667392,0.9072834,-0.6261638,-4.593511,-48.0974,25.50142,1002.022
2.712905884,10.35332,2.530065,-30.86313,0.3810424,0.9372254,-0.6441103,-4.593511,-48.0974,25.50142,1002.022
2.717915535,12.74698,2.045829,-31.29108,0.3918084,0.9703023,-0.6523607,-4.593511,-48.0974,25.50142,1002.022
2.722925663,15.57027,2.287947,-32.75834,0.4158226,0.996902,-0.66746,-4.593511,-48.0974,25.50142,1002.022
2.727936268,16.98191,2.287947,-33.85878,0.4313352,1.010273,-0.6860254,-4.593511,-48.0974,25.50142,1002.022
2.732946396,17.96392,1.92477,-34.2256,0.4491895,1.026513,-0.7006157,-4.593511,-48.0974,25.50142,1002.022
2.737956047,16.42953,1.501064,-33.91992,0.4711139,1.050196,-0.6971061,-4.593511,-48.0974,25.50142,1002.022
2.742966175,12.25597,1.380006,-33.00288,0.4903546,1.084323,-0.6826533,-4.593511,-48.0974,25.50142,1002.022
2.747975826,5.811504,1.743182,-33.00288,0.5019234,1.113481,-0.6694228,-4.593511,-48.0974,25.50142,1002.021
2.752986431,-2.412861,2.711653,-33.30856,0.5214996,1.128221,-0.6609899,-3.806588,-49.22541,25.95979,1002.021
2.757996559,-11.86474,3.922242,-33.5531,0.5319511,1.112375,-0.6658189,-3.806588,-49.22541,25.95979,1002.021
2.763006687,-20.70287,5.072301,-32.81947,0.5313401,1.086972,-0.66583,-3.806588,-49.22541,25.95979,1002.021
2.768016338,-28.31347,6.101301,-32.20811,0.5359066,1.066329,-0.6574429,-3.806588,-49.22541,25.95979,1002.021
2.773026943,-34.81932,6.827654,-31.59675,0.529599,1.059653,-0.6476656,-3.806588,-49.22541,25.95979,1002.021
2.778037071,-39.4225,7.735596,-31.53562,0.5183969,1.056322,-0.6378073,-3.806588,-49.22541,25.95979,1002.021
2.783047199,-41.81616,9.127772,-31.53562,0.4924963,1.062987,-0.6262652,-3.806588,-49.22541,25.95979,1002.021
2.788056850,-41.14103,10.39889,-32.20811,0.4652906,1.068978,-0.6282153,-3.806588,-49.22541,25.95979,1002.022
2.793066978,-37.02885,12.15424,-33.30856,0.4412325,1.058426,-0.630765,-3.806588,-49.22541,25.95979,1002.022
2.798077583,-31.13676,13.84907,-35.02036,0.4123585,1.022276,-0.6482683,-3.806588,-49.22541,25.95979,1002.022
2.803087234,-24.9378,15.84654,-36.60989,0.3997535,0.9749169,-0.6770965,-2.331617,-49.18433,25.06859,1002.022
2.808097362,-18.92297,17.60189,-38.19942,0.3825928,0.9426739,-0.7077951,-2.331617,-49.18433,25.06859,1002.022
2.813107490,-13.82877,19.72042,-39.97236,0.3669704,0.932215,-0.7294819,-2.331617,-49.18433,25.06859,1002.022
2.818117142,-9.532461,21.89948,-41.80644,0.3509166,0.9238962,-0.7592599,-2.331617,-49.18433,25.06859,1002.022
2.823127747,-5.911285,23.89695,-43.02916,0.3292785,0.9140249,-0.8093305,-2.331617,-49.18433,25.06859,1002.022
2.828137875,-1.676351,24.62331,-43.76279,0.3037814,0.9056525,-0.8632244,-2.331617,-49.18433,25.06859,1002.021
2.833148003,2.067577,24.50225,-43.88506,0.2654058,0.8768812,-0.9093664,-2.331617,-49.18433,25.06859,1002.021
2.838157654,4.461236,23.59431,-43.45711,0.2303829,0.8354458,-0.9343361,-2.331617,-49.18433,25.06859,1002.021
2.843167782,3.908852,21.96001,-42.96802,0.1763425,0.7979865,-0.9535674,-2.331617,-49.18433,25.06859,1002.021
2.848178387,1.085563,20.44678,-42.54007,0.1250436,0.7692581,-0.9685968,-2.331617,-49.18433,25.06859,1002.021
2.853188515,-4.315513,18.38877,-41.92871,0.06893165,0.7525044,-0.9563079,-1.552429,-49.54232,24.6198,1002.021
2.858198166,-11.92612,16.08866,-41.07281,0.01860885,0.7413282,-0.949038,-1.552429,-49.54232,24.6198,1002.021
2.863208294,-20.82562,13.9096,-40.64486,-0.0352212,0.7458315,-0.905167,-1.552429,-49.54232,24.6198,1002.021
2.868217945,-31.75052,12.51742,-40.46145,-0.09800431,0.7351587,-0.865321,-1.552429,-49.54232,24.6198,1002.021
2.873228550,-42.06167,10.94366,-40.40031,-0.1393409,0.718037,-0.8284016,-1.552429,-49.54232,24.6198,1002.021
2.878238678,-50.53154,9.309361,-39.85009,-0.1722342,0.6929501,-0.8003548,-1.552429,-49.54232,24.6198,1002.021
2.883248806,-57.03738,7.614537,-39.42214,-0.2030033,0.654709,-0.7723079,-1.552429,-49.54232,24.6198,1002.021
2.888258457,-61.39506,5.919713,-38.81078,-0.2273896,0.6172665,-0.7533002,-1.552429,-49.54232,24.6198,1002.021
2.893268585,-62.80671,4.527536,-37.40466,-0.2366511,0.5772664,-0.740494,-1.552429,-49.54232,24.6198,1002.021
2.898279190,-61.45644,3.0143,-36.7933,-0.2504826,0.553358,-0.7295211,-1.552429,-49.54232,24.6198,1002.021
2.903289318,-58.5104,1.9853,-35.75399,-0.2500684,0.5220456,-0.7268643,-0.3652697,-50.19101,22.8022,1002.021
2.908295155,-53.47758,1.319476,-34.65355,-0.2422396,0.5117421,-0.7199751,-0.3652697,-50.19101,22.8022,1002.019
2.913304806,-46.91036,0.5325937,-33.67537,-0.2311144,0.5138792,-0.7207502,-0.3652697,-50.19101,22.8022,1002.019
2.918315411,-39.177,-0.1332301,-33.36969,-0.2080907,0.5313271,-0.7213114,-0.3652697,-50.19101,22.8022,1002.019
2.923325539,-32.36428,-0.01217122,-33.12515,-0.1872545,0.5577388,-0.7100201,-0.3652697,-50.19101,22.8022,1002.019
2.928335667,-26.65633,-0.1332301,-33.30856,-0.162462,0.5889429,-0.7129244,-0.3652697,-50.19101,22.8022,1002.019
2.933345318,-22.97377,0.4115348,-33.18629,-0.1346972,0.6218603,-0.7243845,-0.3652697,-50.19101,22.8022,1002.019
2.938355446,-20.33461,1.258947,-32.51379,-0.09876497,0.6552361,-0.7295039,-0.3652697,-50.19101,22.8022,1002.019
2.943366051,-19.78223,2.227418,-31.90243,-0.05553602,0.6897975,-0.738834,-0.3652697,-50.19101,22.8022,1002.019
2.948376179,-19.72085,3.438006,-31.35221,-0.01389571,0.7305755,-0.7436181,-0.3652697,-50.19101,22.8022,1002.019
2.953385830,-20.82562,5.13283,-30.92426,0.03078302,0.7595963,-0.7449768,1.1493,-51.66655,21.89621,1002.019
2.958395958,-22.66689,6.706595,-30.43518,0.07557815,0.7843534,-0.7517821,1.1493,-51.66655,21.89621,1002.019
2.963405609,-25.79706,8.583008,-29.70155,0.09860542,0.7967619,-0.7458081,1.1493,-51.66655,21.89621,1002.019
2.968416214,-28.92723,10.70154,-29.21246,0.1281276,0.7981234,-0.7435566,1.1493,-51.66655,21.89621,1002.019
2.973426342,-31.8119,12.33583,-27.80634,0.1526365,0.8075916,-0.7362388,1.1493,-51.66655,21.89621,1002.019
2.978436470,-34.26693,13.84907,-26.46135,0.1535934,0.8070719,-0.7343276,1.1493,-51.66655,21.89621,1002.019
2.983446121,-35.67858,15.54389,-25.3609,0.1438877,0.793264,-0.7142826,1.1493,-51.66655,21.89621,1002.019
2.988456249,-37.1516,17.11766,-23.77137,0.1190294,0.7955766,-0.7038575,1.1493,-51.66655,21.89621,1002.019
2.993466854,-37.21297,17.66242,-21.99843,0.1016979,0.797461,-0.6707942,1.1493,-51.66655,21.89621,1002.019
2.998476982,-37.51985,18.26772,-20.22549,0.07605083,0.8101413,-0.6450866,1.1493,-51.66655,21.89621,1002.019
3.003486633,-37.09022,18.63089,-18.08574,0.05970758,0.812086,-0.6139339,2.346358,-52.69439,20.07491,1002.019
3.008496761,-38.50187,18.32825,-15.6403,0.04190874,0.8155189,-0.5846601,2.346358,-52.69439,20.07491,1002.019
3.013506412,-39.29975,18.0256,-13.62282,0.02231652,0.8127087,-0.5609263,2.346358,-52.69439,20.07491,1002.019
3.018517017,-39.60663,17.35978,-11.48307,0.007063486,0.8104153,-0.5356905,2.346358,-52.69439,20.07491,1002.019
3.023527145,-39.72939,16.9966,-9.037635,-0.005131687,0.797421,-0.5103524,2.346358,-52.69439,20.07491,1002.019
3.028538704,-39.23838,16.33077,-6.89788,-0.005981761,0.7840631,-0.5036611,2.346358,-52.69439,20.07491,1002.019
3.033546924,-37.82673,15.84654,-4.819262,-0.01359936,0.7565096,-0.4793144,2.346358,-52.69439,20.07491,1002.019
3.038557529,-36.47646,15.18072,-2.80178,-0.01947483,0.7231079,-0.4748744,2.346358,-52.69439,20.07491,1002.019
3.043567657,-35.6172,14.21224,-0.7231612,-0.03458897,0.7105474,-0.4490667,2.346358,-52.69439,20.07491,1002.019
3.048577785,-35.73995,13.06219,1.783408,-0.03940784,0.700444,-0.4379644,2.346358,-52.69439,20.07491,1002.019
3.053587436,-35.98545,11.54895,3.923162,-0.0428739,0.6901198,-0.4167673,3.451766,-52.64925,18.26306,1002.019
3.058598041,-35.3717,10.45942,5.757237,-0.04112715,0.664091,-0.4095725,3.451766,-52.64925,18.26306,1002.019
3.063608169,-34.02143,9.793596,7.04109,-0.04105743,0.6551722,-0.4041451,3.451766,-52.64925,18.26306,1002.019
3.068618297,-32.97804,9.43042,7.896991,-0.04284193,0.6363304,-0.3933467,3.451766,-52.64925,18.26306,1002.019
3.073627949,-31.93465,8.946184,8.508349,-0.03394155,0.6141722,-0.3801714,3.451766,-52.64925,18.26306,1002.015
3.078638077,-31.19814,9.309361,8.9363,-0.03281494,0.6019449,-0.3787039,3.451766,-52.64925,18.26306,1002.015
3.083647728,-30.33888,9.309361,8.997436,-0.02436703,0.58339,-0.3735643,3.451766,-52.64925,18.26306,1002.015
3.088658333,-29.35686,9.43042,9.425386,-0.02511534,0.5647237,-0.3694764,3.451766,-52.64925,18.26306,1002.015
3.093668461,-28.68173,9.309361,10.22015,-0.01196946,0.5519437,-0.3578264,3.451766,-52.64925,18.26306,1002.015
3.098678589,-28.00659,9.248832,10.95378,0.001083956,0.553076,-0.3562191,3.451766,-52.64925,18.26306,1002.015
3.103688240,-27.88384,9.43042,11.62628,0.005423928,0.5470325,-0.3458372,3.175504,-53.78136,17.33234,1002.015
3.108694553,-27.82247,9.551478,12.23763,0.0145116,0.5443594,-0.3304774,3.175504,-53.78136,17.33234,1002.015
3.113705158,-27.20871,9.612008,12.84899,0.02509397,0.5433207,-0.3212878,3.175504,-53.78136,17.33234,1002.015
3.118719101,-26.41082,9.733067,13.27694,0.01857759,0.554821,-0.3161066,3.175504,-53.78136,17.33234,1002.015
3.123724937,-24.81505,10.27783,13.58262,0.02166296,0.5487292,-0.3249583,3.175504,-53.78136,17.33234,1002.015
3.128734588,-22.36002,10.2173,14.01057,0.02153519,0.5554895,-0.3218194,3.175504,-53.78136,17.33234,1002.015
3.133744716,-19.04572,10.03571,14.31625,0.01221371,0.5626493,-0.3206737,3.175504,-53.78136,17.33234,1002.015
3.138755321,-15.05629,9.914655,14.7442,0.01012943,0.5723657,-0.3198432,3.175504,-53.78136,17.33234,1002.015
3.143765449,-11.31236,9.914655,14.80534,0.008993972,0.5876005,-0.3245598,3.175504,-53.78136,17.33234,1002.015
3.148775101,-7.077426,9.672538,14.7442,0.005390481,0.6031957,-0.3254419,2.058615,-54.16588,15.93854,1002.015
3.153785229,-3.087996,9.672538,14.37739,0.0009012781,0.6164526,-0.3312263,2.058615,-54.16588,15.93854,1002.012
3.158795357,-0.01920266,9.36989,14.68307,-0.005670427,0.6369065,-0.3329125,2.058615,-54.16588,15.93854,1002.012
3.163809776,2.128953,9.36989,15.17216,-0.002168509,0.6552467,-0.3216109,2.058615,-54.16588,15.93854,1002.012
3.168815613,2.251704,10.15677,13.8883,0.008476431,0.6649588,-0.3331538,2.058615,-54.16588,15.93854,1002.012
3.173825741,1.57657,10.70154,12.84899,0.009425499,0.6714874,-0.340104,2.058615,-54.16588,15.93854,1002.012
3.178835392,-0.01920266,11.54895,11.74855,0.00885638,0.6783442,-0.3412901,2.058615,-54.16588,15.93854,1002.012
3.183845520,-1.98323,12.09371,10.6481,0.01186241,0.6991741,-0.3323009,2.058615,-54.16588,15.93854,1002.012
3.188856125,-4.008633,12.94113,9.486523,0.006808639,0.7182894,-0.3383482,2.058615,-54.16588,15.93854,1002.012
3.193866253,-5.849909,14.15172,8.20267,0.008217242,0.7207267,-0.3372813,2.058615,-54.16588,15.93854,1002.014
3.198875904,-7.077426,15.18072,6.979954,0.009605132,0.7266477,-0.338965,2.062482,-54.5509,16.39212,1002.014
3.203886032,-7.200178,16.08866,5.818373,0.00866033,0.7277013,-0.3427778,2.062482,-54.5509,16.39212,1002.014
3.208896637,-6.525043,16.69395,4.595656,0.01676732,0.7360916,-0.3414213,2.062482,-54.5509,16.39212,1002.014
3.213906765,-5.481654,17.84401,3.434075,0.01568465,0.7418621,-0.338329,2.062482,-54.5509,16.39212,1002.014
3.218916416,-4.254137,19.0546,2.211359,0.02420521,0.7541273,-0.3353798,2.062482,-54.5509,16.39212,1002.014
3.223926544,-3.087996,20.02307,0.9886421,0.02452002,0.765842,-0.3349312,2.062482,-54.5509,16.39212,1002.014
3.228936195,-2.351485,20.93101,-0.05066701,0.03265277,0.77177,-0.3327071,2.062482,-54.5509,16.39212,1002.014
3.233947277,-2.535613,21.89948,-1.151112,0.03934132,0.7766897,-0.3300546,2.062482,-54.5509,16.39212,1002.008
3.238956928,-2.351485,23.1706,-2.007014,0.05472514,0.7831888,-0.3267796,2.062482,-54.5509,16.39212,1002.008
3.243967056,-2.719741,24.38119,-2.740644,0.06683323,0.7929451,-0.3392681,2.062482,-54.5509,16.39212,1002.008
3.248976707,-3.210747,25.28913,-3.22973,0.0763102,0.8026702,-0.3316015,1.667087,-53.79439,15.93614,1002.008
3.253986835,-4.192761,26.19707,-3.535409,0.08669864,0.8122714,-0.318165,1.667087,-53.79439,15.93614,1002.008
3.258997440,-5.420278,27.34713,-3.902225,0.1023281,0.8138076,-0.3318941,1.667087,-53.79439,15.93614,1002.008
3.264007568,-6.525043,27.77084,-3.841089,0.1060525,0.8205669,-0.3263164,1.667087,-53.79439,15.93614,1002.008
3.269017219,-7.629809,28.55772,-4.146768,0.1191559,0.8203048,-0.3276446,1.667087,-53.79439,15.93614,1002.008
3.274027347,-8.427695,28.9209,-3.596545,0.1238428,0.8295866,-0.324845,1.667087,-53.79439,15.93614,1002.01
3.279037475,-9.286958,29.64725,-3.168595,0.1324949,0.8406532,-0.3329916,1.667087,-53.79439,15.93614,1002.01
3.284048080,-9.716588,30.31307,-3.168595,0.1377271,0.8440306,-0.3280089,1.667087,-53.79439,15.93614,1002.01
3.289057731,-9.900716,30.9789,-3.046323,0.1448521,0.8584331,-0.3336405,1.667087,-53.79439,15.93614,1002.01
3.294067859,-8.857327,31.76578,-2.924051,0.1481228,0.873336,-0.3421723,1.667087,-53.79439,15.93614,1002.01
3.299077511,-7.138802,32.85531,-3.107459,0.1493672,0.8905229,-0.3453508,0.6056061,-54.57438,15.91149,1002.01
3.304087639,-5.174775,33.52113,-3.168595,0.1547161,0.9002378,-0.3603069,0.6056061,-54.57438,15.91149,1002.01
3.309094429,-2.290109,34.4896,-3.413138,0.1505679,0.9247678,-0.3675813,0.6056061,-54.57438,15.91149,1002.01
3.314104080,0.5331801,34.91331,-3.657681,0.1421995,0.9450279,-0.3827458,0.6056061,-54.57438,15.91149,1002.01
3.319114208,3.601973,35.5186,-3.657681,0.1342861,0.9717865,-0.4039053,0.6056061,-54.57438,15.91149,1002.01
3.324124336,7.468653,35.5186,-3.22973,0.1272667,1.005446,-0.4271964,0.6056061,-54.57438,15.91149,1002.01
3.329134941,12.31735,35.39755,-2.862915,0.1251099,1.041742,-0.455627,0.6056061,-54.57438,15.91149,1002.01
3.334144592,17.65705,34.97384,-2.373829,0.1141302,1.08423,-0.482944,0.6056061,-54.57438,15.91149,1002.01
3.339154720,22.62849,34.18696,-1.212248,0.1048629,1.116759,-0.5216752,0.6056061,-54.57438,15.91149,1002.01
3.344164371,26.9248,32.97637,0.2550122,0.1042584,1.145237,-0.5489471,0.6056061,-54.57438,15.91149,1002.01
3.349174499,30.4846,31.64472,1.844544,0.09541605,1.169554,-0.5706887,0.2459402,-54.94946,14.98715,1002.01
3.354185104,31.40524,30.55519,2.883853,0.09365816,1.19909,-0.5815942,0.2459402,-54.94946,14.98715,1002.01
3.359195232,30.60735,29.76831,3.678619,0.08452953,1.228776,-0.5829532,0.2459402,-54.94946,14.98715,1002.01
3.364204883,25.82003,29.10248,4.167706,0.0772085,1.236114,-0.5880284,0.2459402,-54.94946,14.98715,1002.01
3.369215011,19.43694,28.86037,4.656792,0.07721956,1.260224,-0.5750987,0.2459402,-54.94946,14.98715,1002.01
3.374225139,10.23057,28.79984,5.023607,0.07306038,1.269079,-0.5599054,0.2459402,-54.94946,14.98715,1002.01
3.379235744,-0.3874578,29.22354,5.512694,0.06751179,1.275543,-0.5476992,0.2459402,-54.94946,14.98715,1002.01
3.384249687,-11.06686,29.76831,5.940645,0.0710756,1.282421,-0.5267425,0.2459402,-54.94946,14.98715,1002.01
3.389255524,-20.51874,30.73678,6.552003,0.08302571,1.273626,-0.4986151,0.2459402,-54.94946,14.98715,1002.01
3.394265175,-28.2521,31.52366,7.591312,0.08856298,1.268503,-0.4646424,0.2459402,-54.94946,14.98715,1002.01
3.399275303,-33.8373,32.18949,8.386078,0.1034888,1.265972,-0.4516248,0.2080469,-54.20874,16.36637,1002.01
3.404285908,-36.23096,33.21849,9.364251,0.1164777,1.257863,-0.4311495,0.2080469,-54.20874,16.36637,1002.01
3.409296036,-35.73995,33.76325,10.22015,0.1382542,1.256603,-0.4261877,0.2080469,-54.20874,16.36637,1002.01
3.414305687,-30.58438,34.0659,11.50401,0.1640832,1.261376,-0.4464247,0.2080469,-54.20874,16.36637,1002.01
3.419315815,-21.68488,34.18696,12.78786,0.1931794,1.2765,-0.4686397,0.2080469,-54.20874,16.36637,1002.01
3.424325943,-10.94411,33.94484,13.39922,0.2184937,1.284727,-0.4906721,0.2080469,-54.20874,16.36637,1002.01
3.429336548,-2.474237,34.00537,13.64376,0.2453313,1.274465,-0.4941736,0.2080469,-54.20874,16.36637,1002.01
3.434346199,1.26969,34.4896,13.76603,0.2589061,1.251609,-0.5102914,0.2080469,-54.20874,16.36637,1002.008
3.439356327,1.085563,34.97384,14.19398,0.2873134,1.218069,-0.5401301,0.2080469,-54.20874,16.36637,1002.008
3.444365978,-0.08057852,35.45808,14.49966,0.3190105,1.189887,-0.5673316,0.2080469,-54.20874,16.36637,1002.008
3.449376106,-0.4488337,36.54761,14.13285,0.3402612,1.149945,-0.5994033,0.2300091,-54.57617,15.44812,1002.008
3.454386711,0.1649249,38.66614,13.58262,0.3630828,1.10021,-0.6294301,0.2300091,-54.57617,15.44812,1002.008
3.459396839,1.208315,41.32943,12.60445,0.3783251,1.042196,-0.6651286,0.2300091,-54.57617,15.44812,1002.008
3.464406490,2.374456,44.11378,10.52583,0.3778731,0.9543679,-0.6891356,0.2300091,-54.57617,15.44812,1002.008
3.469416618,0.6559318,46.89814,8.386078,0.384701,0.8575893,-0.7018825,0.2300091,-54.57617,15.44812,1002.008
3.474426746,-3.210747,49.31932,6.796546,0.3966909,0.7614956,-0.6991788,0.2300091,-54.57617,15.44812,1002.008
3.479437351,-9.471085,51.1352,5.57383,0.4096832,0.6644867,-0.6984224,0.2300091,-54.57617,15.44812,1002.008
3.484447002,-15.24042,52.28526,4.473385,0.4237579,0.5883137,-0.6901363,0.2300091,-54.57617,15.44812,1002.008
3.489457130,-18.98434,53.1932,3.250668,0.4380166,0.5280845,-0.6745148,0.2300091,-54.57617,15.44812,1002.008
3.494467258,-20.58012,53.91955,1.844544,0.4525583,0.4769697,-0.651817,0.2300091,-54.57617,15.44812,1002.008
3.499477863,-18.98434,54.94855,0.4995555,0.4688421,0.4476233,-0.6398067,-0.9049759,-54.97828,15.42615,1002.008
3.504487514,-14.93354,56.82497,-1.02884,0.4732877,0.4226513,-0.6138068,-0.9049759,-54.97828,15.42615,1002.008
3.509493351,-9.041454,59.7909,-3.96336,0.4849237,0.4051719,-0.5903373,-0.9049759,-54.97828,15.42615,1002.008
3.514503479,-2.412861,62.39367,-6.714473,0.4900141,0.3886684,-0.5913977,-0.9049759,-54.97828,15.42615,1002.008
3.519513607,5.259121,63.54373,-9.954672,0.4898959,0.3954518,-0.5892188,-0.9049759,-54.97828,15.42615,1002.008
3.524524212,14.34275,64.75432,-13.0726,0.4911217,0.4050221,-0.5801942,-0.9049759,-54.97828,15.42615,1002.008
3.529533863,24.59252,66.02544,-14.601,0.4767007,0.4582992,-0.5706151,-0.9049759,-54.97828,15.42615,1002.008
3.534543991,34.41265,66.26756,-14.66213,0.4653475,0.5401266,-0.56857,-0.9049759,-54.97828,15.42615,1002.008
3.539554119,43.61903,66.32809,-15.33463,0.440435,0.6212679,-0.5666786,-0.9049759,-54.97828,15.42615,1002.008
3.544563770,52.45716,66.08597,-16.74075,0.4116774,0.6838966,-0.5895526,-0.9049759,-54.97828,15.42615,1002.008
3.549574375,60.68152,66.02544,-18.33028,0.3935729,0.7406085,-0.603422,-2.359635,-55.32359,15.39972,1002.008
3.554584503,66.75774,65.54121,-19.7364,0.3699769,0.7838759,-0.6303475,-2.359635,-55.32359,15.39972,1002.01
3.559594154,69.70377,64.33061,-21.81502,0.32988,0.8233036,-0.6498863,-2.359635,-55.32359,15.39972,1002.01
3.564604282,70.68579,62.81738,-24.01591,0.3020999,0.8533018,-0.6759145,-2.359635,-55.32359,15.39972,1002.01
3.569614410,69.09002,61.30414,-26.33908,0.2679417,0.9005386,-0.6710753,-2.359635,-55.32359,15.39972,1002.01
3.574625015,63.25931,59.66985,-28.53996,0.2378572,0.9321529,-0.6639091,-2.359635,-55.32359,15.39972,1002.01
3.579634666,56.32384,58.21714,-30.80199,0.1931611,0.975992,-0.6665059,-2.359635,-55.32359,15.39972,1002.01
3.584644794,48.22223,57.06708,-33.49197,0.1540648,1.007433,-0.6781705,-2.359635,-55.32359,15.39972,1002.01
3.589654922,39.07722,55.97755,-35.87626,0.118581,1.010681,-0.6726147,-2.359635,-55.32359,15.39972,1002.01
3.594664574,29.80947,55.06961,-38.01602,0.09307766,0.9854886,-0.6560345,-2.359635,-55.32359,15.39972,1002.008
3.599675178,19.13007,53.61691,-40.40031,0.06461396,0.9581069,-0.6313968,-3.156918,-54.9832,17.22034,1002.008
3.604685306,8.327914,52.76949,-43.02916,0.04654636,0.9142421,-0.6053664,-3.156918,-54.9832,17.22034,1002.008
3.609694958,-0.3874578,51.67996,-45.16891,0.02264279,0.8793265,-0.5896215,-3.156918,-54.9832,17.22034,1002.008
3.614705086,-6.770547,50.40884,-46.94185,0.0292378,0.8367178,-0.5599478,-3.156918,-54.9832,17.22034,1002.008
3.619715691,-8.427695,50.1062,-48.10343,0.0445796,0.8003552,-0.5410058,-3.156918,-54.9832,17.22034,1002.008
3.624725819,-6.525043,48.83508,-48.65365,0.07269076,0.7615607,-0.5350096,-3.156918,-54.9832,17.22034,1002.008
3.629735470,-2.351485,47.86661,-48.53138,0.1043521,0.7326409,-0.510826,-3.156918,-54.9832,17.22034,1002.008
3.634745598,2.497208,46.05073,-48.8982,0.1391242,0.7217737,-0.4840043,-3.156918,-54.9832,17.22034,1002.007
3.639755726,6.241135,44.17431,-48.8982,0.1567613,0.6942272,-0.4647053,-3.156918,-54.9832,17.22034,1002.007
3.644766331,8.573418,41.69261,-47.3698,0.1848439,0.6743996,-0.4349239,-3.156918,-54.9832,17.22034,1002.007
3.649775982,8.082411,39.08984,-45.41345,0.2044926,0.66155,-0.3958268,-2.417842,-54.27864,17.69658,1002.007
3.654786110,6.241135,37.51608,-43.70165,0.2233569,0.6496349,-0.3759216,-2.417842,-54.27864,17.69658,1002.007
3.659796238,3.479221,35.5186,-42.47893,0.2333993,0.6373504,-0.346023,-2.417842,-54.27864,17.69658,1002.007
3.664805889,-0.6329613,34.42908,-41.50076,0.2408337,0.6232178,-0.3426467,-2.417842,-54.27864,17.69658,1002.007
3.669816494,-3.701754,33.52113,-40.27804,0.2275041,0.6199081,-0.3145484,-2.417842,-54.27864,17.69658,1002.007
3.674826622,-7.261554,32.12896,-38.44397,0.2204747,0.6227515,-0.2948058,-2.417842,-54.27864,17.69658,1002.005
3.679836273,-10.20759,30.85784,-36.7933,0.2105633,0.6200598,-0.2700154,-2.417842,-54.27864,17.69658,1002.005
3.684846401,-11.92612,30.55519,-35.9374,0.2042451,0.6093205,-0.2536659,-2.417842,-54.27864,17.69658,1002.005
3.689856529,-12.96951,29.82884,-35.02036,0.1894883,0.587522,-0.2498289,-2.417842,-54.27864,17.69658,1002.005
3.694867134,-12.29437,29.16301,-34.04219,0.1785249,0.5711346,-0.24527,-2.417842,-54.27864,17.69658,1002.005
3.699876785,-11.12823,28.13401,-32.88061,0.1627574,0.5552793,-0.2455409,-0.557374,-54.61493,17.26505,1002.005
3.704886913,-7.875312,27.2866,-31.59675,0.1560012,0.5481781,-0.2386671,-0.557374,-54.61493,17.26505,1002.005
3.709897041,-4.315513,25.95495,-30.49631,0.1430513,0.5392177,-0.2396103,-0.557374,-54.61493,17.26505,1002.005
3.714902878,0.2876766,25.16807,-29.51814,0.1334173,0.5341635,-0.2384517,-0.557374,-54.61493,17.26505,1002.005
3.719913483,5.381873,24.26013,-28.66224,0.1282409,0.5238529,-0.2393731,-0.557374,-54.61493,17.26505,1002.005
3.724923134,10.72157,23.47325,-27.80634,0.127239,0.5267888,-0.2402318,-0.557374,-54.61493,17.26505,1002.005
3.729933262,15.81577,22.1416,-26.82816,0.1295568,0.5391923,-0.2469457,-0.557374,-54.61493,17.26505,1002.005
3.734943390,20.54171,20.99154,-26.15567,0.1224958,0.5500365,-0.2350676,-0.557374,-54.61493,17.26505,1002.005
3.739953041,23.48775,20.02307,-25.3609,0.1224912,0.5510352,-0.2359906,-0.557374,-54.61493,17.26505,1002.005
3.744963646,24.8994,18.20719,-24.62727,0.119137,0.556628,-0.2473414,0.2058821,-54.59962,17.27723,1002.005
3.749973774,25.88141,16.81501,-23.22115,0.1162945,0.565827,-0.2662382,0.2058821,-54.59962,17.27723,1002.005
3.754983902,26.24967,15.12019,-22.05957,0.1118346,0.5715824,-0.2646197,0.2058821,-54.59962,17.27723,1002.003
3.759993553,25.94279,13.06219,-20.71458,0.1167019,0.5838215,-0.2833284,0.2058821,-54.59962,17.27723,1002.003
3.765004158,24.77665,11.06471,-19.553,0.1241757,0.6014385,-0.2801854,0.2058821,-54.59962,17.27723,1002.003
3.770014286,22.81262,9.067244,-18.51369,0.1143674,0.6186814,-0.2925952,0.2058821,-54.59962,17.27723,1002.003
3.775023937,20.60309,7.190831,-17.78006,0.120634,0.6247539,-0.2975908,0.2058821,-54.59962,17.27723,1002.003
3.780034065,17.96392,5.072301,-16.61848,0.1204292,0.6399107,-0.2984576,0.2058821,-54.59962,17.27723,1002.003
3.785044193,15.38614,2.953771,-15.39576,0.1246361,0.6481867,-0.2947397,0.2058821,-54.59962,17.27723,1002.003
3.790054798,13.05386,1.016829,-14.47872,0.1272676,0.6682642,-0.2953927,0.2058821,-54.59962,17.27723,1002.003
3.792559147,12.13322,-0.1332301,-14.05077,0.1319598,0.6795778,-0.2958792,0.2058821,-54.59962,17.27723,1002.003
3.797569275,10.59882,-1.828054,-13.31714,0.1429534,0.6925044,-0.2986475,1.2553,-53.83136,18.21644,1001.999
3.802579880,9.494056,-3.34129,-12.76692,0.152008,0.701362,-0.2958229,1.2553,-53.83136,18.21644,1001.999
3.807590008,9.309928,-4.612408,-12.64465,0.1571702,0.7126481,-0.2948645,1.2553,-53.83136,18.21644,1001.999
3.812599659,10.10781,-5.822997,-12.64465,0.1653214,0.7251827,-0.3034405,1.2553,-53.83136,18.21644,1001.999
3.817609787,11.88771,-6.791467,-12.33897,0.1696835,0.7313075,-0.3118155,1.2553,-53.83136,18.21644,1001.999
3.822619438,13.42211,-8.486291,-12.09443,0.1748693,0.7406309,-0.310451,1.2553,-53.83136,18.21644,1001.999
3.827630520,15.01788,-9.817939,-11.72761,0.174742,0.7590024,-0.3232073,1.2553,-53.83136,18.21644,1001.999
3.832640171,16.06127,-11.3917,-11.60534,0.1849746,0.7783253,-0.307961,1.2553,-53.83136,18.21644,1001.999
3.837650299,16.61366,-12.4207,-11.60534,0.1823881,0.7940497,-0.3136336,1.2553,-53.83136,18.21644,1001.999
3.842659950,16.61366,-13.63129,-11.84988,0.1817914,0.8058884,-0.3189549,1.2553,-53.83136,18.21644,1001.999
3.847670078,15.81577,-14.72082,-11.84988,0.1867929,0.8258746,-0.3143035,1.627028,-53.44455,18.22623,1001.999
3.852680683,14.83376,-15.99194,-11.66648,0.1960102,0.8341137,-0.3263964,1.627028,-53.44455,18.22623,1001.999
3.857690811,14.28137,-16.77882,-11.78875,0.2051347,0.8446535,-0.3326367,1.627028,-53.44455,18.22623,1001.999
3.862700462,14.4655,-17.26306,-11.84988,0.2103942,0.8612208,-0.348294,1.627028,-53.44455,18.22623,1001.999
3.867710590,15.75439,-17.80782,-12.03329,0.2225151,0.8745417,-0.3668932,1.627028,-53.44455,18.22623,1001.999
3.872721195,17.90255,-18.71576,-11.84988,0.2342846,0.8831271,-0.3919224,1.627028,-53.44455,18.22623,1001.999
3.877731323,20.72584,-18.59471,-11.66648,0.2450962,0.8977824,-0.4263398,1.627028,-53.44455,18.22623,1001.999
3.882740974,25.20628,-19.26053,-11.66648,0.2581182,0.9175165,-0.4470891,1.627028,-53.44455,18.22623,1001.999
3.887751102,28.4592,-20.229,-10.99398,0.2767802,0.940451,-0.4551706,1.627028,-53.44455,18.22623,1001.999
3.892760754,29.93222,-20.16847,-12.03329,0.2908151,0.9527325,-0.4699474,1.627028,-53.44455,18.22623,1001.999
3.897771358,30.66873,-19.92635,-12.64465,0.2944348,0.9824611,-0.4856,1.986693,-53.06947,19.15057,1001.999
3.902781486,31.28249,-19.2,-13.50055,0.304272,1.013096,-0.4944325,1.986693,-53.06947,19.15057,1001.999
3.907791615,32.57138,-18.53418,-14.11191,0.3132083,1.047919,-0.5156073,1.986693,-53.06947,19.15057,1001.999
3.912797451,35.08779,-17.56571,-15.4569,0.3243307,1.067717,-0.5402161,1.986693,-53.06947,19.15057,1001.999
3.917807579,37.8497,-15.93141,-16.67961,0.3448333,1.075954,-0.5656568,1.986693,-53.06947,19.15057,1002.003
3.922818184,39.93648,-15.02347,-18.0246,0.3629945,1.08233,-0.5964761,1.986693,-53.06947,19.15057,1002.003
3.927827835,40.85712,-14.66029,-18.51369,0.3768598,1.097738,-0.5991229,1.986693,-53.06947,19.15057,1002.003
3.932837963,40.9185,-13.81288,-18.6971,0.3861943,1.132361,-0.6116526,1.986693,-53.06947,19.15057,1002.003
3.937847614,40.79575,-12.72335,-19.43073,0.4041421,1.166347,-0.6125934,1.986693,-53.06947,19.15057,1002.003
3.942857742,40.30474,-11.3917,-20.4089,0.4167869,1.201833,-0.618332,1.986693,-53.06947,19.15057,1002.003
3.947868347,40.24336,-10.12059,-21.57048,0.4207309,1.232699,-0.6200038,1.970301,-53.86295,21.88684,1002.003
3.952878475,39.26135,-8.365232,-23.22115,0.4199918,1.250253,-0.6193429,1.970301,-53.86295,21.88684,1002.003
3.957888126,36.86769,-6.367761,-24.74954,0.4196368,1.268583,-0.6099999,1.970301,-53.86295,21.88684,1002.005
3.962898254,32.75551,-4.067643,-26.52248,0.4124324,1.290693,-0.5996166,1.970301,-53.86295,21.88684,1002.005
3.967908382,27.53856,-1.888584,-27.92861,0.3951096,1.318342,-0.6025717,1.970301,-53.86295,21.88684,1002.005
3.972918987,23.30363,0.2299465,-28.90678,0.3774455,1.3433,-0.6157229,1.970301,-53.86295,21.88684,1002.005
3.977928638,20.84859,1.319476,-29.76268,0.3545656,1.363406,-0.6334323,1.970301,-53.86295,21.88684,1002.005
3.982938766,19.5597,2.409006,-30.1295,0.3300226,1.371018,-0.6607621,1.970301,-53.86295,21.88684,1002.005
3.987948418,19.13007,3.498536,-30.61858,0.3154083,1.354105,-0.6773995,1.970301,-53.86295,21.88684,1002.005
3.992958546,15.63164,4.16436,-30.55745,0.3034541,1.30852,-0.6778045,1.970301,-53.86295,21.88684,1002.005
3.997969151,8.941673,6.343419,-31.10767,0.2903444,1.257067,-0.6991052,4.552263,-53.0582,22.39313,1002.007
4.002979279,3.479221,8.764596,-31.90243,0.2759118,1.219535,-0.7520823,4.552263,-53.0582,22.39313,1002.007
4.007988930,3.479221,10.2173,-32.0247,0.2571767,1.212725,-0.8058532,4.552263,-53.0582,22.39313,1002.007
4.012999058,7.161773,11.00418,-31.35221,0.2334924,1.202061,-0.8444412,4.552263,-53.0582,22.39313,1002.007
4.018009662,11.94909,11.12524,-30.86313,0.2132326,1.178906,-0.8690571,4.552263,-53.0582,22.39313,1002.007
4.023019790,13.66761,10.88313,-30.49631,0.1923925,1.108715,-0.8671183,4.552263,-53.0582,22.39313,1002.007
4.028029442,9.985063,10.27783,-30.06836,0.1672208,1.011922,-0.8787252,4.552263,-53.0582,22.39313,1002.007
4.033039570,2.681335,10.03571,-29.15132,0.1346636,0.8952002,-0.8988478,4.552263,-53.0582,22.39313,1002.007
4.038049698,-5.420278,10.27783,-27.37838,0.1036009,0.7981384,-0.9028323,4.552263,-53.0582,22.39313,1002.007
4.043060303,-14.50391,10.64101,-25.84999,0.06299312,0.7147663,-0.8929319,5.289689,-52.29045,22.86998,1002.007
4.048069954,-24.50817,11.42789,-24.505,0.01868847,0.6376788,-0.8621656,5.289689,-52.29045,22.86998,1002.007
4.053080082,-33.10079,11.8516,-22.54865,-0.007159889,0.567025,-0.8439545,5.289689,-52.29045,22.86998,1002.007
4.058089733,-39.60663,11.67001,-19.06391,-0.03891892,0.5036266,-0.826484,5.289689,-52.29045,22.86998,1002.007
4.063099861,-44.39395,10.09624,-15.82371,-0.06752748,0.453833,-0.8041418,5.289689,-52.29045,22.86998,1002.007
4.068110466,-46.60348,7.856655,-12.52238,-0.09847832,0.3991488,-0.7829688,5.289689,-52.29045,22.86998,1002.007
4.073120594,-44.94633,4.769654,-8.426276,-0.109765,0.3654734,-0.7704214,5.289689,-52.29045,22.86998,1002.007
4.078130245,-39.4225,1.198417,-3.779953,-0.131411,0.3519033,-0.7677777,5.289689,-52.29045,22.86998,1002.007
4.083140373,-29.47962,-2.857054,0.4995555,-0.139523,0.3424914,-0.7672511,5.289689,-52.29045,22.86998,1002.007
4.088154316,-15.97693,-7.215173,5.023607,-0.1450043,0.3873342,-0.7670382,5.289689,-52.29045,22.86998,1002.007
4.093161106,-2.044606,-11.93647,7.530176,-0.1444399,0.4643263,-0.739118,5.993154,-51.94873,21.96968,1002.007
4.098170757,7.836908,-15.26559,8.263806,-0.1365385,0.5208943,-0.6898027,5.993154,-51.94873,21.96968,1002.007
4.103180885,13.72899,-16.17353,7.958127,-0.1111801,0.569317,-0.6771511,5.993154,-51.94873,21.96968,1002.007
4.108190536,17.7798,-15.99194,8.20267,-0.06995922,0.6213496,-0.7036139,5.993154,-51.94873,21.96968,1002.007
4.113197326,22.19886,-15.14453,8.080399,-0.03216055,0.6853743,-0.7435874,5.993154,-51.94873,21.96968,1002.007
4.118207454,27.59994,-14.17606,7.46904,0.01487934,0.7375034,-0.7704723,5.993154,-51.94873,21.96968,1002.007
4.123217106,31.09836,-13.75235,6.918818,0.05255334,0.7916377,-0.7848762,5.993154,-51.94873,21.96968,1002.007
4.128227234,30.4846,-12.78388,6.979954,0.0906157,0.8349475,-0.7751825,5.993154,-51.94873,21.96968,1002.007
4.133237362,24.53114,-11.14959,7.530176,0.1191539,0.8714476,-0.7725646,5.993154,-51.94873,21.96968,1002.007
4.138247967,15.38614,-9.273174,8.447213,0.1599424,0.8917964,-0.7608359,5.993154,-51.94873,21.96968,1002.007
4.143257618,0.9014353,-7.094114,10.52583,0.2023902,0.9010503,-0.753838,6.380813,-51.93521,21.51849,1002.007
4.148267746,-15.54729,-5.45982,11.74855,0.2357186,0.900786,-0.7424831,6.380813,-51.93521,21.51849,1002.007
4.153277397,-32.30291,-2.675466,12.97126,0.2531888,0.8864682,-0.7250849,6.380813,-51.93521,21.51849,1002.007
4.158287525,-48.62888,-0.01217122,14.19398,0.2628378,0.8743955,-0.7043114,6.380813,-51.93521,21.51849,1002.005
4.163298130,-62.92946,2.227418,15.53897,0.2420849,0.8540947,-0.6850979,6.380813,-51.93521,21.51849,1002.005
4.168308258,-73.2406,2.772182,16.45601,0.23492,0.8431299,-0.6802969,6.380813,-51.93521,21.51849,1002.005
4.173317909,-78.21205,3.0143,17.43418,0.2013692,0.8262022,-0.6466603,6.380813,-51.93521,21.51849,1002.005
4.178328037,-79.93057,3.438006,18.29008,0.1669355,0.8180482,-0.6333599,6.380813,-51.93521,21.51849,1002.005
4.183338165,-77.72104,3.256418,18.96258,0.138468,0.8127217,-0.5915463,6.380813,-51.93521,21.51849,1002.005
4.188348770,-74.22262,3.0143,20.49097,0.1048348,0.8117495,-0.5717186,6.380813,-51.93521,21.51849,1002.005
4.193361282,-68.76016,1.682653,22.14164,0.08179798,0.8077527,-0.5413353,5.701474,-52.25348,20.58969,1002.005
4.198368549,-63.48184,0.8957703,22.99754,0.05061449,0.7998137,-0.5145421,5.701474,-52.25348,20.58969,1002.003
4.203378200,-57.77389,0.1694171,23.6089,0.03164899,0.7806939,-0.4822933,5.701474,-52.25348,20.58969,1002.003
4.208388328,-52.98657,-0.2542889,23.42549,0.01313616,0.7685717,-0.456501,5.701474,-52.25348,20.58969,1002.003
4.213398933,-48.81301,0.1694171,22.93641,-0.00737937,0.7567707,-0.4249494,5.701474,-52.25348,20.58969,1002.003
4.218409061,-46.91036,0.2904759,22.20278,-0.01842952,0.7381556,-0.408944,5.701474,-52.25348,20.58969,1002.003
4.223418712,-44.82358,0.1694171,21.65255,-0.02033398,0.728617,-0.3992342,5.701474,-52.25348,20.58969,1002.003
4.228428840,-42.4913,-0.7385244,21.34687,-0.03256352,0.7136677,-0.4148135,5.701474,-52.25348,20.58969,1002.003
4.233438968,-38.56324,-2.735996,20.79665,-0.02943669,0.6910173,-0.4050747,5.701474,-52.25348,20.58969,1002.003
4.238449573,-35.00344,-4.067643,20.12416,-0.03639184,0.6755083,-0.4143791,5.701474,-52.25348,20.58969,1002.003
4.243459225,-30.82988,-5.883526,19.81848,-0.03387879,0.65355,-0.3930878,4.626348,-53.76374,18.27025,1002.003
4.248469353,-28.4976,-7.215173,19.63507,-0.03447186,0.6507583,-0.3787846,4.626348,-53.76374,18.27025,1002.003
4.253479481,-27.57696,-8.788939,19.32939,-0.03263275,0.6480252,-0.3654172,4.626348,-53.76374,18.27025,1002.003
4.258489132,-28.31347,-9.817939,18.77917,-0.03022125,0.6419764,-0.3560146,4.626348,-53.76374,18.27025,1002.003
4.263499737,-29.04998,-10.3627,18.29008,-0.03120286,0.6298171,-0.3382274,4.626348,-53.76374,18.27025,1002.003
4.268509865,-30.46163,-10.968,17.80099,-0.02630791,0.6178923,-0.3266225,4.626348,-53.76374,18.27025,1002.003
4.273519516,-32.42566,-10.84694,16.94509,-0.03299315,0.6069231,-0.3213367,4.626348,-53.76374,18.27025,1002.003
4.278529644,-34.57381,-10.3627,15.90578,-0.01842453,0.5956047,-0.3086567,4.626348,-53.76374,18.27025,1002.005
4.283540249,-36.23096,-9.817939,15.11102,-0.009211357,0.5866706,-0.2968974,4.626348,-53.76374,18.27025,1002.005
4.288550377,-37.33572,-8.66788,13.8883,-0.006253731,0.5777481,-0.289521,4.626348,-53.76374,18.27025,1002.005
4.293560028,-37.6426,-7.457291,12.11536,0.002061117,0.5639217,-0.2779562,4.640576,-53.36114,16.44484,1002.005
4.298570156,-37.1516,-6.54935,10.4647,0.008377742,0.5685999,-0.2858873,4.640576,-53.36114,16.44484,1002.005
4.303580284,-34.26693,-5.762467,7.958127,0.01176581,0.5736889,-0.2923889,4.640576,-53.36114,16.44484,1002.005
4.308590889,-29.41824,-5.45982,6.735411,0.04431001,0.564768,-0.2871366,4.640576,-53.36114,16.44484,1002.005
4.313596725,-23.1579,-5.944056,5.634965,0.04999843,0.5796947,-0.2951643,4.640576,-53.36114,16.44484,1002.005
4.318606376,-16.28381,-5.399291,4.717928,0.05933832,0.5875763,-0.2717126,4.640576,-53.36114,16.44484,1002.008
4.323616505,-10.20759,-4.551878,3.189532,0.07353926,0.6016244,-0.2580711,4.640576,-53.36114,16.44484,1002.008
4.328626633,-4.929271,-3.522878,1.966815,0.09326053,0.5931343,-0.2788701,4.640576,-53.36114,16.44484,1002.008
4.333637237,0.4718042,-3.522878,0.682963,0.09939988,0.6079875,-0.2835328,4.640576,-53.36114,16.44484,1002.008
4.338647842,4.461236,-3.159702,-0.417482,0.09102041,0.6221635,-0.2893188,4.640576,-53.36114,16.44484,1002.008
4.343657017,7.407277,-3.038643,-1.212248,0.08636225,0.6501586,-0.2988687,3.533586,-54.12481,15.04734,1002.008
4.348667145,10.29194,-2.614937,-1.640199,0.07510445,0.6643613,-0.3075638,3.533586,-54.12481,15.04734,1002.008
4.353676796,12.37872,-2.130701,-2.007014,0.06218048,0.6911569,-0.3129126,3.533586,-54.12481,15.04734,1002.008
4.358687401,13.72899,-1.828054,-2.4961,0.06017775,0.7010691,-0.3202423,3.533586,-54.12481,15.04734,1002.006
4.363697529,13.79037,-1.16223,-2.985187,0.05992167,0.7221603,-0.3242474,3.533586,-54.12481,15.04734,1002.006
4.368707180,12.80835,-0.9806421,-3.290866,0.06029455,0.7360335,-0.3323651,3.533586,-54.12481,15.04734,1002.006
4.373717308,10.35332,-0.1332301,-3.657681,0.05907857,0.7455223,-0.3214446,3.533586,-54.12481,15.04734,1002.006
4.378727436,6.548015,0.8352408,-3.413138,0.06482711,0.7515071,-0.3230849,3.533586,-54.12481,15.04734,1002.006
4.383738041,2.251704,1.622123,-3.474274,0.06559113,0.7560769,-0.3094498,3.533586,-54.12481,15.04734,1002.006
4.388747692,-2.290109,2.832712,-3.535409,0.06740267,0.7679165,-0.3133069,3.533586,-54.12481,15.04734,1002.006
4.393757820,-6.034037,4.588065,-3.96336,0.07552181,0.7672496,-0.3007628,4.306742,-54.48866,15.05583,1002.006
4.398767948,-8.673199,5.556536,-3.596545,0.08503339,0.7715051,-0.2889795,4.306742,-54.48866,15.05583,1002.008
4.403778553,-10.14622,6.585536,-3.413138,0.09842309,0.7838988,-0.2883821,4.306742,-54.48866,15.05583,1002.008
4.408788204,-10.02347,8.159302,-3.22973,0.1040462,0.7865536,-0.2733327,4.306742,-54.48866,15.05583,1002.008
4.413798332,-8.734574,9.067244,-3.290866,0.1154594,0.7988267,-0.2689144,4.306742,-54.48866,15.05583,1002.008
4.418808460,-7.32293,10.27783,-3.22973,0.1180986,0.8108457,-0.2593029,4.306742,-54.48866,15.05583,1002.008
4.423818111,-4.990647,11.54895,-2.740644,0.1252464,0.820255,-0.2603192,4.306742,-54.48866,15.05583,1002.008
4.428828716,-3.149372,12.63848,-1.884742,0.1366859,0.8320864,-0.2578395,4.306742,-54.48866,15.05583,1002.008
4.433838844,-1.123968,14.09119,-1.395655,0.1447846,0.8455045,-0.2625384,4.306742,-54.48866,15.05583,1002.008
4.438848495,0.4104283,15.90707,-0.9065686,0.1686589,0.8687397,-0.2595079,4.306742,-54.48866,15.05583,1002.006
4.443858623,1.883449,17.84401,-1.151112,0.1806917,0.8843729,-0.2727345,3.549517,-54.4981,14.58637,1002.006
4.448868751,3.417845,19.59936,-0.3563462,0.1948214,0.892844,-0.2914994,3.549517,-54.4981,14.58637,1002.006
4.453879356,5.13637,20.74942,0.1938763,0.1983388,0.8972337,-0.3095583,3.549517,-54.4981,14.58637,1002.006
4.458889007,6.977645,21.65736,1.110914,0.2030317,0.8935521,-0.3365623,3.549517,-54.4981,14.58637,1002.006
4.463899135,7.95966,22.08107,2.150223,0.204794,0.8821996,-0.3509121,3.549517,-54.4981,14.58637,1002.006
4.468909263,8.327914,22.56531,3.617483,0.1987471,0.8726162,-0.362385,3.549517,-54.4981,14.58637,1002.006
4.473918915,7.714156,23.04954,5.023607,0.1876562,0.8831812,-0.3822685,3.549517,-54.4981,14.58637,1002.006
4.478929520,7.65278,23.41272,6.674275,0.1854557,0.9077625,-0.3904835,3.549517,-54.4981,14.58637,1002.008
4.483939648,7.039021,23.65483,8.20267,0.1789274,0.9293301,-0.397893,3.549517,-54.4981,14.58637,1002.008
4.488949299,7.284525,23.71536,8.997436,0.1662657,0.950698,-0.4212243,3.549517,-54.4981,14.58637,1002.008
4.493959427,9.678184,24.01801,9.425386,0.1532272,0.9612116,-0.440167,3.533586,-54.12481,15.04734,1002.008
4.498969555,13.72899,24.86543,9.058572,0.1360176,0.9726216,-0.4788153,3.533586,-54.12481,15.04734,1002.008
4.503980160,19.00731,25.47072,8.324942,0.1296961,0.9871139,-0.4965825,3.533586,-54.12481,15.04734,1002.008
4.508989811,25.26765,25.71284,7.407905,0.1229128,0.9966058,-0.5097392,3.533586,-54.12481,15.04734,1002.008
4.513996124,29.93222,25.04701,7.46904,0.1234465,1.029396,-0.5123308,3.533586,-54.12481,15.04734,1002.008
4.519005775,33.24651,24.26013,7.896991,0.1229603,1.088152,-0.4985682,3.533586,-54.12481,15.04734,1002.01
4.524016380,35.14917,23.53378,8.386078,0.1218702,1.130608,-0.4979244,3.533586,-54.12481,15.04734,1002.01
4.529026508,36.13118,22.50478,9.303115,0.1173297,1.149799,-0.5068471,3.533586,-54.12481,15.04734,1002.01
4.534036159,36.80631,21.89948,10.70924,0.1142608,1.164007,-0.5106599,3.533586,-54.12481,15.04734,1002.01
4.539046287,36.19255,21.59683,11.80968,0.1114501,1.184241,-0.5007871,3.533586,-54.12481,15.04734,1002.01
4.544056415,32.87826,21.65736,12.35991,0.1166279,1.218639,-0.4859759,3.199631,-53.7579,15.50324,1002.01
4.549067020,26.74067,21.83895,13.46035,0.1217788,1.250447,-0.4650169,3.199631,-53.7579,15.50324,1002.01
4.554076671,17.28879,22.44425,14.49966,0.1344019,1.293812,-0.4324964,3.199631,-53.7579,15.50324,1002.01
4.559086800,4.522611,23.23113,15.53897,0.1579753,1.339398,-0.3839319,3.199631,-53.7579,15.50324,1002.01
4.564096928,-9.041454,25.16807,16.21146,0.1875827,1.382569,-0.3531812,3.199631,-53.7579,15.50324,1002.01
4.569106579,-19.22985,27.58925,17.1285,0.2457039,1.42411,-0.3592227,3.199631,-53.7579,15.50324,1002.01
4.574117184,-22.9124,29.40513,17.49532,0.2975446,1.453129,-0.3970321,3.199631,-53.7579,15.50324,1002.01
4.579127312,-18.86159,30.49466,17.67872,0.3291184,1.44989,-0.4463499,3.199631,-53.7579,15.50324,1002.01
4.584136963,-9.962091,30.01043,17.18964,0.3292902,1.382596,-0.5118539,3.199631,-53.7579,15.50324,1002.01
4.589147091,-0.08057852,29.58672,16.63942,0.2987989,1.279334,-0.5626774,3.199631,-53.7579,15.50324,1002.01
4.594157219,7.284525,29.82884,16.88396,0.2781003,1.190952,-0.5965059,2.026752,-53.41931,16.86049,1002.01
4.599167824,12.01047,29.70778,17.49532,0.2833517,1.148733,-0.6249706,2.026752,-53.41931,16.86049,1002.01
4.604177475,17.16604,29.46566,17.92327,0.3109634,1.14624,-0.6670898,2.026752,-53.41931,16.86049,1002.015
4.609187603,22.81262,29.3446,19.02371,0.3339787,1.168716,-0.6737062,2.026752,-53.41931,16.86049,1002.015
4.614197731,29.25708,29.46566,18.47349,0.3319215,1.162995,-0.7013318,2.026752,-53.41931,16.86049,1002.015
4.619207382,33.86027,31.76578,15.96692,0.3330715,1.092561,-0.7164934,2.026752,-53.41931,16.86049,1002.015
4.624217987,33.06239,34.61066,13.94944,0.3132586,0.9873348,-0.7192413,2.026752,-53.41931,16.86049,1002.015
4.629228115,26.37242,37.21343,11.44287,0.3144597,0.854723,-0.7482997,2.026752,-53.41931,16.86049,1002.015
4.634238243,16.4909,38.30296,9.119707,0.3290601,0.7249367,-0.7646317,2.026752,-53.41931,16.86049,1002.015
4.639247894,5.197746,38.24243,7.713584,0.3430427,0.6168874,-0.750832,1.655023,-53.80611,16.8507,1002.015
4.644258499,-6.27954,37.69767,6.552003,0.3513165,0.5546491,-0.7161233,1.655023,-53.80611,16.8507,1002.013
4.649268627,-14.93354,37.45555,5.329287,0.3650069,0.4947164,-0.692808,1.655023,-53.80611,16.8507,1002.013
4.654279232,-18.67746,37.75819,5.145879,0.3895156,0.4563758,-0.6671279,1.655023,-53.80611,16.8507,1002.013
4.659288406,-17.08169,38.90825,5.084743,0.4115926,0.4476139,-0.634099,1.655023,-53.80611,16.8507,1002.013
4.664298534,-11.80337,40.11884,3.678619,0.4244711,0.4392399,-0.6025834,1.655023,-53.80611,16.8507,1002.013
4.669309139,-2.474237,42.41896,2.578174,0.4352545,0.4450994,-0.5753511,1.655023,-53.80611,16.8507,1002.013
4.674318790,7.65278,45.20332,-0.2952103,0.4335548,0.4384297,-0.5424662,1.655023,-53.80611,16.8507,1002.013
4.679328918,18.94594,48.89561,-3.168595,0.4491664,0.4449707,-0.5612906,1.655023,-53.80611,16.8507,1002.013
4.684339046,32.69413,52.22473,-5.675163,0.4539584,0.4811123,-0.5584291,1.655023,-53.80611,16.8507,1002.013
4.689348698,45.64444,54.40379,-7.63151,0.4733948,0.5212611,-0.571134,0.1723166,-53.07715,16.83474,1002.013
4.694359302,59.02438,55.43279,-9.159906,0.4718885,0.5881041,-0.6104089,0.1723166,-53.07715,16.83474,1002.013
4.699369430,71.60643,55.79596,-11.05512,0.4632894,0.6631908,-0.6311779,0.1723166,-53.07715,16.83474,1002.013
4.704379082,81.30381,55.97755,-14.23418,0.4468816,0.7240412,-0.6741844,0.1723166,-53.07715,16.83474,1002.013
4.709389210,89.95781,54.88802,-16.92416,0.4276065,0.7814112,-0.7163894,0.1723166,-53.07715,16.83474,1002.013
4.714395046,97.38428,53.67743,-19.12505,0.3956148,0.8413399,-0.7509285,0.1723166,-53.07715,16.83474,1002.013
4.719405651,101.6806,51.07467,-21.99843,0.3618544,0.8779212,-0.7700354,0.1723166,-53.07715,16.83474,1002.013
4.724415779,104.6266,49.62196,-23.52683,0.3377688,0.9021341,-0.817391,0.1723166,-53.07715,16.83474,1002.017
4.729425907,104.6266,47.74555,-24.13819,0.2762285,0.9505419,-0.8377508,0.1723166,-53.07715,16.83474,1002.017
4.734435558,101.3737,44.23484,-25.97226,0.2385355,0.9919794,-0.8581516,0.1723166,-53.07715,16.83474,1002.017
4.739445686,93.21073,41.81367,-27.68406,0.1876892,1.0063,-0.835021,-0.6408968,-52.36348,19.11633,1002.017
4.744458198,79.40116,40.17937,-29.15132,0.1495515,1.006075,-0.8493229,-0.6408968,-52.36348,19.11633,1002.017
4.749465942,63.56619,38.24243,-31.04653,0.1066929,0.9848762,-0.8471689,-0.6408968,-52.36348,19.11633,1002.017
4.754476070,44.84655,37.1529,-32.81947,0.07832092,0.9501429,-0.8213685,-0.6408968,-52.36348,19.11633,1002.017
4.759486198,24.8994,36.66866,-34.34787,0.05851592,0.9217287,-0.7890007,-0.6408968,-52.36348,19.11633,1002.017
4.764495850,4.706739,36.1239,-35.0815,0.0586248,0.9147764,-0.7431361,-0.6408968,-52.36348,19.11633,1002.017
4.769506454,-12.29437,35.15543,-35.69286,0.05287784,0.9041055,-0.6883386,-0.6408968,-52.36348,19.11633,1002.017
4.774516582,-25.55156,34.12643,-35.9374,0.06394904,0.9094999,-0.6414206,-0.6408968,-52.36348,19.11633,1002.017
4.779526710,-34.63519,32.49213,-35.63172,0.04911014,0.8939201,-0.5912199,-0.6408968,-52.36348,19.11633,1002.017
4.784536362,-39.36113,30.91837,-35.14263,0.06275804,0.8549401,-0.5454853,-0.6408968,-52.36348,19.11633,1002.017
4.789546967,-40.58865,29.28407,-33.49197,0.07064398,0.8235723,-0.5153719,-1.488191,-50.5814,21.86567,1002.017
4.794557095,-38.68599,27.83137,-31.8413,0.07610758,0.7931795,-0.4866857,-1.488191,-50.5814,21.86567,1002.017
4.799567223,-34.69656,26.01548,-29.94609,0.08605052,0.7580872,-0.4629411,-1.488191,-50.5814,21.86567,1002.017
4.804577827,-28.2521,24.50225,-29.21246,0.08330435,0.7301627,-0.4404846,-1.488191,-50.5814,21.86567,1002.017
4.809587002,-22.11451,22.68637,-27.86747,0.09862115,0.6897018,-0.4135302,-1.488191,-50.5814,21.86567,1002.017
4.814597607,-15.73142,21.05207,-27.01157,0.1007408,0.6679553,-0.4013641,-1.488191,-50.5814,21.86567,1002.017
4.819607258,-9.655212,19.47831,-26.33908,0.09538822,0.6526786,-0.378451,-1.488191,-50.5814,21.86567,1002.017
4.824617386,-5.236151,18.63089,-26.52248,0.09984917,0.6317819,-0.3595035,-1.488191,-50.5814,21.86567,1002.017
4.829627514,-2.781116,17.17819,-25.78885,0.1155886,0.6208155,-0.3198911,-1.488191,-50.5814,21.86567,1002.017
4.834637165,-3.701754,15.90707,-25.48317,0.09798286,0.62976,-0.3168334,-1.488191,-50.5814,21.86567,1002.017
4.839647770,-4.867896,15.66495,-25.66658,0.0924419,0.6185743,-0.2812735,0.7461691,-50.14,20.53307,1002.017
4.844657898,-7.507057,14.45436,-25.3609,0.0960502,0.6029907,-0.2808714,0.7461691,-50.14,20.53307,1002.017
4.849668980,-10.14622,13.3043,-24.68841,0.1036286,0.5796126,-0.2788064,0.7461691,-50.14,20.53307,1002.017
4.854677677,-13.03088,12.09371,-24.26046,0.1027328,0.5656402,-0.2668534,0.7461691,-50.14,20.53307,1002.017
4.859687805,-16.16105,11.30683,-23.89364,0.1198366,0.5445319,-0.251639,0.7461691,-50.14,20.53307,1002.017
4.864698410,-18.92297,10.27783,-23.71023,0.1174757,0.5416156,-0.2536941,0.7461691,-50.14,20.53307,1002.017
4.869708061,-20.70287,9.43042,-23.71023,0.1147385,0.5212848,-0.2424808,0.7461691,-50.14,20.53307,1002.017
4.874718189,-21.99176,9.067244,-22.9766,0.1102759,0.4979025,-0.2477368,0.7461691,-50.14,20.53307,1002.017
4.879728317,-21.43938,7.917184,-21.87616,0.1259159,0.4833103,-0.2404568,0.7461691,-50.14,20.53307,1002.017
4.884738922,-20.51874,7.009243,-20.71458,0.124331,0.4854979,-0.2307784,0.7461691,-50.14,20.53307,1002.015
4.889748573,-18.73884,6.16183,-19.553,0.1244098,0.4841726,-0.2365941,1.913016,-50.48446,19.6331,1002.015
4.894758701,-15.67005,5.435477,-19.12505,0.1287475,0.4786285,-0.2266737,1.913016,-50.48446,19.6331,1002.015
4.899768829,-11.06686,4.527536,-18.0246,0.1313238,0.4704517,-0.2303241,1.913016,-50.48446,19.6331,1002.015
4.904778481,-5.358902,4.285418,-17.47438,0.1350287,0.4857457,-0.2345124,1.913016,-50.48446,19.6331,1002.015
4.909789085,1.57657,4.043301,-17.1687,0.1418751,0.4794341,-0.2318051,1.913016,-50.48446,19.6331,1002.015
4.914794922,8.634794,3.740653,-16.86302,0.1456522,0.4959112,-0.2445968,1.913016,-50.48446,19.6331,1002.015
4.919805050,15.38614,3.438006,-16.86302,0.1481331,0.5087062,-0.2676312,1.913016,-50.48446,19.6331,1002.015
4.924815178,21.15547,3.135359,-16.37393,0.1514908,0.5172559,-0.2759234,1.913016,-50.48446,19.6331,1002.015
4.929824829,25.63591,2.287947,-15.4569,0.1575994,0.5431405,-0.2926598,1.913016,-50.48446,19.6331,1002.015
4.934835434,28.15232,1.258947,-14.29532,0.1641737,0.5710065,-0.3102774,1.913016,-50.48446,19.6331,1002.015
4.939845562,29.19571,0.04835821,-13.25601,0.1744788,0.6021134,-0.3181266,1.928947,-50.85775,19.17213,1002.015
4.944855690,28.76608,-1.283289,-12.15556,0.184445,0.6310391,-0.3371135,1.928947,-50.85775,19.17213,1002.015
4.949865341,26.55655,-2.735996,-11.17739,0.1927279,0.661411,-0.3358802,1.928947,-50.85775,19.17213,1002.015
4.954875469,22.62849,-4.128172,-9.587857,0.2105582,0.6956199,-0.3257621,1.928947,-50.85775,19.17213,1002.015
4.959886074,18.33218,-5.45982,-8.181733,0.207188,0.7323248,-0.3311245,1.928947,-50.85775,19.17213,1002.015
4.964896202,13.23798,-6.912526,-6.653337,0.2124136,0.7658272,-0.3197103,1.928947,-50.85775,19.17213,1002.015
4.969905853,8.143787,-8.123115,-5.43062,0.223826,0.7846608,-0.324172,1.928947,-50.85775,19.17213,1002.015
4.974915981,3.908852,-9.394233,-4.146768,0.2313677,0.7958786,-0.3188694,1.928947,-50.85775,19.17213,1002.015
4.979925632,0.4718042,-10.968,-2.679508,0.2235462,0.8067046,-0.3271801,1.928947,-50.85775,19.17213,1002.015
4.984936237,-1.123968,-12.23912,-1.33452,0.2318668,0.8065214,-0.3347968,1.928947,-50.85775,19.17213,1002.015
4.989946365,-1.185344,-13.81288,0.3772838,0.2367186,0.813675,-0.34505,3.035938,-50.09407,20.56963,1002.015
4.994956493,0.2263008,-15.20506,1.294321,0.2436303,0.8100443,-0.3523307,3.035938,-50.09407,20.56963,1002.015
4.999966145,2.067577,-16.47618,2.027951,0.2406623,0.8159133,-0.3545378,3.035938,-50.09407,20.56963,1002.015
5.004976749,3.417845,-17.74729,2.761581,0.2464167,0.8259503,-0.3622704,3.035938,-50.09407,20.56963,1002.015
5.009986877,4.461236,-18.29206,3.067261,0.2521046,0.8388566,-0.3674919,3.035938,-50.09407,20.56963,1002.015
5.014997005,5.197746,-18.83682,2.700445,0.2488566,0.8561682,-0.3582149,3.035938,-50.09407,20.56963,1002.015
5.020006656,4.829491,-19.32106,2.394766,0.24665,0.885278,-0.3720238,3.035938,-50.09407,20.56963,1002.015
5.025016784,4.829491,-19.07894,1.538865,0.2395943,0.9077451,-0.376521,3.035938,-50.09407,20.56963,1002.015
5.027522087,5.320498,-19.07894,0.9275063,0.237128,0.9151766,-0.382508,3.035938,-50.09407,20.56963,1002.015
5.032531738,6.057008,-18.53418,-0.5397537,0.2338285,0.9289776,-0.4103635,3.035938,-50.09407,20.56963,1002.015
5.037541866,7.223149,-18.23153,-2.06815,0.2365023,0.9270922,-0.4320326,3.335813,-49.39259,20.58148,1002.015
5.042552471,8.69617,-17.68676,-3.841089,0.2370322,0.9362946,-0.4489756,3.335813,-49.39259,20.58148,1002.014
5.047562599,10.59882,-17.56571,-5.614028,0.237522,0.9479245,-0.4653461,3.335813,-49.39259,20.58148,1002.014
5.052572250,11.64221,-17.20253,-7.142423,0.2383688,0.967332,-0.4799759,3.335813,-49.39259,20.58148,1002.014
5.057582378,12.74698,-17.142,-8.731956,0.2474811,0.9869289,-0.4974037,3.335813,-49.39259,20.58148,1002.014
5.062592506,14.22,-16.47618,-10.81057,0.2421973,0.9980668,-0.5172107,3.335813,-49.39259,20.58148,1002.014
5.067603111,16.12265,-15.74982,-12.82806,0.2508082,1.017111,-0.5322617,3.335813,-49.39259,20.58148,1002.014
5.072612762,17.35017,-15.32612,-14.7844,0.2503398,1.033801,-0.5566173,3.335813,-49.39259,20.58148,1002.014
5.077622890,18.57768,-14.78135,-17.10756,0.2614246,1.046947,-0.5685059,3.335813,-49.39259,20.58148,1002.014
5.082632541,19.31419,-14.29712,-19.67527,0.2700648,1.058489,-0.5761541,3.335813,-49.39259,20.58148,1002.016
5.087642669,20.11208,-13.38918,-21.99843,0.2797351,1.074736,-0.5961065,4.47683,-48.98461,20.14617,1002.016
5.092653274,20.84859,-13.08653,-23.89364,0.301524,1.084611,-0.6075385,4.47683,-48.98461,20.14617,1002.016
5.097663402,21.46235,-12.4207,-25.48317,0.3231408,1.106693,-0.6189881,4.47683,-48.98461,20.14617,1002.016
5.102673054,21.76923,-12.4207,-27.0727,0.349975,1.130098,-0.6212088,4.47683,-48.98461,20.14617,1002.016
5.107683182,20.35758,-12.17859,-28.17315,0.3634839,1.157774,-0.6060944,4.47683,-48.98461,20.14617,1002.016
5.112689018,18.14805,-12.36018,-28.29542,0.3812362,1.196339,-0.5943698,4.47683,-48.98461,20.14617,1002.016
5.117699623,14.34275,-12.17859,-28.53996,0.3832476,1.238653,-0.5653527,4.47683,-48.98461,20.14617,1002.016
5.122709751,9.125801,-11.93647,-28.84564,0.3820786,1.271833,-0.544401,4.47683,-48.98461,20.14617,1002.016
5.127719402,3.908852,-11.08906,-29.51814,0.3651664,1.300826,-0.5420156,4.47683,-48.98461,20.14617,1002.014
5.132729530,-0.3874578,-9.999527,-30.61858,0.3332743,1.327173,-0.5403523,4.47683,-48.98461,20.14617,1002.014
5.137740135,-2.167358,-8.909997,-31.96357,0.2973846,1.34827,-0.5667953,5.228023,-48.98103,21.07291,1002.014
5.142750263,-1.430847,-7.941526,-33.12515,0.2537879,1.358257,-0.582682,5.228023,-48.98103,21.07291,1002.014
5.147759914,0.3490525,-8.002056,-34.2256,0.2248083,1.341036,-0.6158033,5.228023,-48.98103,21.07291,1002.014
5.152770042,1.331066,-8.123115,-34.65355,0.2094115,1.274728,-0.6300025,5.228023,-48.98103,21.07291,1002.014
5.157780170,-2.351485,-8.425762,-34.409,0.1989997,1.202266,-0.6491941,5.228023,-48.98103,21.07291,1002.014
5.162790775,-7.936688,-8.062586,-33.67537,0.1897498,1.152344,-0.6708807,5.228023,-48.98103,21.07291,1002.014
5.167800426,-12.66263,-7.880997,-32.94174,0.177236,1.150846,-0.6773019,5.228023,-48.98103,21.07291,1002.016
5.172810554,-15.97693,-6.912526,-31.90243,0.151761,1.171512,-0.6791579,5.228023,-48.98103,21.07291,1002.016
5.177820682,-16.09968,-5.944056,-31.71903,0.1271274,1.180926,-0.7001735,5.228023,-48.98103,21.07291,1002.016
5.182830334,-14.81078,-5.701938,-31.16881,0.1057274,1.163403,-0.7159369,5.228023,-48.98103,21.07291,1002.016
5.187840938,-14.31978,-6.125644,-31.16881,0.1060103,1.088657,-0.7351147,6.693095,-48.5608,20.1854,1002.016
5.192851066,-17.02032,-6.851997,-30.92426,0.09500252,0.9832546,-0.7454744,6.693095,-48.5608,20.1854,1002.016
5.197860718,-22.97377,-8.062586,-30.37404,0.08583859,0.8847213,-0.756036,6.693095,-48.5608,20.1854,1002.016
5.202870846,-30.46163,-8.970527,-28.90678,0.07735536,0.7930818,-0.7480699,6.693095,-48.5608,20.1854,1002.016
5.207880974,-37.94949,-9.152115,-26.82816,0.05918047,0.7334576,-0.7370551,6.693095,-48.5608,20.1854,1002.016
5.212891578,-42.9823,-9.454762,-23.95478,0.03083975,0.699304,-0.7150764,6.693095,-48.5608,20.1854,1002.016
5.217901230,-45.74422,-10.06006,-21.02026,0.00359024,0.6829792,-0.6823187,6.693095,-48.5608,20.1854,1002.016
5.222911358,-47.33999,-11.02853,-17.84119,-0.02691225,0.6553273,-0.6476199,6.693095,-48.5608,20.1854,1002.016
5.227921486,-47.64687,-12.4207,-14.35645,-0.05622249,0.6191394,-0.6228448,6.693095,-48.5608,20.1854,1002.016
5.232932091,-45.98972,-14.53923,-10.6883,-0.07297625,0.5921234,-0.6062516,6.693095,-48.5608,20.1854,1002.016
5.237943649,-42.55267,-16.47618,-7.203559,-0.1002939,0.5631617,-0.5965587,8.593501,-47.7525,19.3087,1002.016
5.242951870,-37.3971,-18.95788,-3.718817,-0.1163781,0.5381115,-0.600546,8.593501,-47.7525,19.3087,1002.016
5.247961521,-29.97062,-21.62118,0.316148,-0.1396644,0.5166463,-0.6159966,8.593501,-47.7525,19.3087,1002.014
5.252974987,-20.21186,-24.58712,4.289977,-0.1475091,0.5124194,-0.6484248,8.593501,-47.7525,19.3087,1002.014
5.257982254,-8.550447,-28.09783,8.019262,-0.1569347,0.5445687,-0.6713154,8.593501,-47.7525,19.3087,1002.014
5.262992382,2.558583,-31.66906,11.01492,-0.1515839,0.5803909,-0.6751878,8.593501,-47.7525,19.3087,1002.014
5.268003464,9.616808,-34.75606,13.0324,-0.1361438,0.619185,-0.6745278,8.593501,-47.7525,19.3087,1002.014
5.273012161,11.94909,-36.51141,15.04988,-0.1053146,0.66651,-0.6738791,8.593501,-47.7525,19.3087,1002.014
5.278022289,10.78295,-36.75353,15.90578,-0.07600722,0.7287937,-0.6870905,8.593501,-47.7525,19.3087,1002.014
5.283032894,8.880298,-35.72453,15.29443,-0.04391241,0.8014331,-0.7027648,8.593501,-47.7525,19.3087,1002.014
5.288042545,5.566001,-34.33236,14.25512,-0.01118534,0.860805,-0.7146134,8.255799,-48.49501,17.46611,1002.014
5.293052673,0.6559318,-32.87965,13.39922,0.01506406,0.8955718,-0.7226539,8.255799,-48.49501,17.46611,1002.014
5.298065662,-5.297526,-31.48747,13.15467,0.0467409,0.9185361,-0.7238848,8.255799,-48.49501,17.46611,1002.014
5.303072452,-12.84676,-31.18483,13.82717,0.07092401,0.9303978,-0.7352186,8.255799,-48.49501,17.46611,1002.014
5.308083057,-21.50075,-30.33742,15.04988,0.1110766,0.9212447,-0.7154887,8.255799,-48.49501,17.46611,1002.014
5.313088894,-30.70713,-29.67159,16.63942,0.1261507,0.9074598,-0.7014562,8.255799,-48.49501,17.46611,1002.014
5.318099022,-39.54526,-28.461,17.80099,0.1400692,0.8952319,-0.671519,8.255799,-48.49501,17.46611,1002.014
5.323109150,-47.46274,-26.94777,19.32939,0.1489246,0.8754897,-0.6572912,8.255799,-48.49501,17.46611,1002.014
5.328118801,-52.12731,-26.28194,20.85779,0.1455408,0.868392,-0.6484635,8.255799,-48.49501,17.46611,1002.014
5.333129406,-52.80244,-25.61612,21.83596,0.1346742,0.8637003,-0.6223167,8.255799,-48.49501,17.46611,1002.014
5.338139534,-51.20667,-24.345,22.93641,0.1164623,0.8556875,-0.5843527,8.931785,-47.33766,17.03109,1002.014
5.343149185,-49.11989,-23.49759,24.03685,0.09687848,0.8478494,-0.5545636,8.931785,-47.33766,17.03109,1002.014
5.348159313,-45.92834,-22.83177,24.89275,0.07031166,0.8464997,-0.5145028,8.931785,-47.33766,17.03109,1002.014
5.353169918,-42.12304,-21.43959,25.01502,0.06258722,0.8328238,-0.4987587,8.931785,-47.33766,17.03109,1002.014
5.358180046,-37.94949,-21.258,24.40367,0.06646772,0.8116896,-0.4702156,8.931785,-47.33766,17.03109,1002.014
5.363189697,-34.38968,-21.31853,24.40367,0.06423811,0.7873827,-0.4557852,8.931785,-47.33766,17.03109,1002.014
5.368199825,-31.93465,-22.287,25.56525,0.06979708,0.7828166,-0.4246741,8.931785,-47.33766,17.03109,1002.014
5.373209953,-31.01401,-23.25547,27.94954,0.06548594,0.787773,-0.3894496,8.931785,-47.33766,17.03109,1002.014
5.378220558,-30.032,-23.98182,29.29453,0.05655255,0.7926891,-0.3758926,8.931785,-47.33766,17.03109,1002.014
5.383230209,-29.17274,-23.98182,30.02816,0.05371596,0.7771673,-0.3616142,8.931785,-47.33766,17.03109,1002.014
5.388240337,-29.04998,-24.22394,31.06747,0.04584258,0.7440984,-0.3518948,8.667586,-48.45803,15.18582,1002.014
5.393250465,-29.66374,-24.9503,31.98451,0.03854611,0.7163064,-0.3583061,8.667586,-48.45803,15.18582,1002.014
5.398260116,-30.95264,-25.19241,32.96268,0.02970144,0.6837227,-0.3490579,8.667586,-48.45803,15.18582,1002.014
5.403270721,-32.42566,-25.61612,34.00199,0.01720832,0.6691501,-0.3396392,8.667586,-48.45803,15.18582,1002.014
5.408280849,-35.06482,-25.55559,34.24654,0.006527813,0.6512759,-0.3135116,8.667586,-48.45803,15.18582,1002.014
5.413293838,-38.68599,-24.82924,34.06313,-0.007697097,0.645605,-0.2893556,8.667586,-48.45803,15.18582,1002.014
5.418300629,-43.65744,-24.28447,33.75745,-0.007644795,0.6341203,-0.2787406,8.667586,-48.45803,15.18582,1002.014
5.423310757,-46.97174,-23.80024,32.90155,-0.01203547,0.6289367,-0.2688885,8.667586,-48.45803,15.18582,1002.014
5.428321361,-47.95375,-23.19494,31.25088,-0.0008019377,0.6232572,-0.2694794,8.667586,-48.45803,15.18582,1002.014
5.433331013,-46.78761,-22.58965,29.78362,0.002666997,0.6063294,-0.2537537,8.667586,-48.45803,15.18582,1002.014
5.438341141,-44.82358,-21.74224,28.43863,0.0191762,0.5955503,-0.241996,9.00587,-48.04319,12.90821,1002.014
5.443355083,-42.24579,-20.95535,26.78796,0.02742869,0.5815741,-0.224191,9.00587,-48.04319,12.90821,1002.014
5.448360920,-39.60663,-19.74477,25.56525,0.038231,0.5684437,-0.2197839,9.00587,-48.04319,12.90821,1002.014
5.453371525,-36.53784,-18.89735,24.40367,0.04493803,0.5607879,-0.201753,9.00587,-48.04319,12.90821,1002.014
5.458384991,-33.16217,-17.92888,23.24208,0.04557913,0.5445128,-0.1946781,9.00587,-48.04319,12.90821,1002.014
5.463391304,-29.60237,-16.96041,22.01937,0.05685128,0.5399357,-0.2005122,9.00587,-48.04319,12.90821,1002.014
5.468401432,-24.75367,-16.05247,20.98006,0.05307868,0.532051,-0.1998867,9.00587,-48.04319,12.90821,1002.014
5.473412037,-18.98434,-15.32612,20.42984,0.05503391,0.5336348,-0.203652,9.00587,-48.04319,12.90821,1002.014
5.478422165,-11.9875,-14.90241,20.24643,0.05104994,0.5434152,-0.2066809,9.00587,-48.04319,12.90821,1002.014
5.483431816,-5.052023,-14.66029,20.42984,0.06345927,0.5487003,-0.1953117,9.00587,-48.04319,12.90821,1002.014
5.488441944,1.453818,-14.17606,20.00189,0.0652723,0.566601,-0.2075872,7.596787,-49.18654,11.04466,1002.014
5.493452072,7.65278,-13.32865,18.84031,0.05934775,0.5758421,-0.2096938,7.596787,-49.18654,11.04466,1002.014
5.498462677,13.97449,-12.60229,18.41235,0.05686603,0.5887893,-0.2217176,7.596787,-49.18654,11.04466,1002.014
5.503472328,18.82319,-11.997,17.92327,0.05328674,0.6150432,-0.2394921,7.596787,-49.18654,11.04466,1002.014
5.508482456,22.19886,-11.08906,17.43418,0.04384048,0.6410853,-0.2520443,7.596787,-49.18654,11.04466,1002.014
5.513488293,23.48775,-10.42323,16.76169,0.03217212,0.67197,-0.2437716,7.596787,-49.18654,11.04466,1002.014
5.518498421,22.93537,-9.817939,15.66124,0.01792287,0.6940043,-0.25508,7.596787,-49.18654,11.04466,1002.014
5.523509025,20.60309,-8.970527,14.86648,0.008945992,0.7169884,-0.261978,7.596787,-49.18654,11.04466,1002.014
5.528518677,17.53429,-7.51782,14.07171,0.009714272,0.7291405,-0.259106,7.596787,-49.18654,11.04466,1002.012
