Time (s),Gyroscope X (deg/s),Gyroscope Y (deg/s),Gyroscope Z (deg/s),Accelerometer X (g),Accelerometer Y (g),Accelerometer Z (g),Magnetometer X (uT),Magnetometer Y (uT),Magnetometer Z (uT),Barometer (hPa)
0.007682323,0.9025589,-0.1902425,-0.02716104,-1.041575,-0.04258645,-0.09697684,48.12743,-18.46167,-4.613712,1002.192
0.012733459,0.4119002,-0.2506437,0.09526838,-1.038644,-0.04015676,-0.09311277,48.12743,-18.46167,-4.613712,1002.192
0.017788887,-0.2010839,-0.3715848,0.2176209,-1.04781,-0.04909755,-0.09229584,48.12743,-18.46167,-4.613712,1002.192
0.022844314,-0.5072914,-0.3712943,0.2174842,-1.037155,-0.03969967,-0.08928519,48.12743,-18.46167,-4.613712,1002.192
0.027899265,-0.752086,-0.5527375,0.1561126,-1.044559,-0.03872913,-0.09828685,48.12743,-18.46167,-4.613712,1002.192
0.032954693,-0.7516327,-0.1889993,0.2172687,-1.038524,-0.0503768,-0.09289488,48.12743,-18.46167,-4.613712,1002.192
0.038013458,-1.118753,-0.06776299,0.2782712,-1.042573,-0.03780488,-0.09253711,47.38139,-18.48185,-5.056914,1002.19
0.043066025,-1.179387,-0.1282792,0.2780772,-1.039026,-0.04560027,-0.08750246,47.38139,-18.48185,-5.056914,1002.19
0.048121452,-1.239866,-0.0676779,0.2779025,-1.037711,-0.0367272,-0.09351318,47.38139,-18.48185,-5.056914,1002.19
0.053176403,-1.484181,0.1746569,0.2165313,-1.040035,-0.04698562,-0.09375192,47.38139,-18.48185,-5.056914,1002.19
0.058231830,-1.36075,0.235087,0.1551603,-1.042027,-0.04313838,-0.09315656,47.38139,-18.48185,-5.056914,1002.19
0.063287258,-1.421135,0.1743805,-0.08976188,-1.038137,-0.04446815,-0.09705716,47.38139,-18.48185,-5.056914,1002.19
0.068342685,-1.358983,0.2953885,-0.1509406,-1.036649,-0.04591401,-0.09615047,47.38139,-18.48185,-5.056914,1002.19
0.073398590,-1.174333,0.3557618,-0.08961075,-1.038255,-0.03472738,-0.097766,47.38139,-18.48185,-5.056914,1002.19
0.078454017,-1.418709,0.4767131,-0.2119284,-1.042063,-0.0468807,-0.1033052,47.38139,-18.48185,-5.056914,1002.188
0.083508968,-1.417817,0.7792647,-0.5178549,-1.038024,-0.05800775,-0.1026686,47.37751,-18.11103,-4.60847,1002.188
0.088564396,-1.72328,1.081664,-0.5787647,-1.039955,-0.05665575,-0.09782846,47.37751,-18.11103,-4.60847,1002.188
0.093619823,-1.59966,1.081004,-0.3947922,-1.035637,-0.05357826,-0.1030574,47.37751,-18.11103,-4.60847,1002.188
0.098674774,-1.905008,1.56489,-0.6393496,-1.029739,-0.05688059,-0.1027183,47.37751,-18.11103,-4.60847,1002.188
0.103730202,-1.965089,1.624466,-0.8225377,-1.034592,-0.06225755,-0.1071178,47.37751,-18.11103,-4.60847,1002.188
0.108785629,-2.392707,1.926335,-0.8832559,-1.03361,-0.06177424,-0.1056786,47.37751,-18.11103,-4.60847,1002.188
0.113841533,-2.575,2.106801,-0.8827203,-1.036629,-0.05785335,-0.1112954,47.37751,-18.11103,-4.60847,1002.188
0.118896961,-2.757198,2.408329,-1.00452,-1.036551,-0.05942536,-0.1036761,47.37751,-18.11103,-4.60847,1002.187
0.123951912,-2.877984,2.52799,-1.003928,-1.034654,-0.05881085,-0.1099022,47.37751,-18.11103,-4.60847,1002.187
0.129007339,-2.876176,2.708117,-1.125709,-1.037123,-0.05499389,-0.1078668,47.37751,-18.11103,-4.60847,1002.187
0.134062767,-3.242001,2.706453,-1.431062,-1.034767,-0.0495564,-0.1106234,47.75202,-18.47215,-5.059847,1002.187
0.139118194,-3.178724,3.068125,-1.675026,-1.035655,-0.05497369,-0.1074014,47.75202,-18.47215,-5.059847,1002.187
0.144173145,-3.299226,3.369049,-1.796444,-1.031745,-0.06062394,-0.115242,47.75202,-18.47215,-5.059847,1002.187
0.149229526,-3.113338,3.306335,-2.162533,-1.03662,-0.06548633,-0.1215433,47.75202,-18.47215,-5.059847,1002.187
0.154284477,-2.743751,3.485992,-2.22241,-1.034644,-0.0635894,-0.1157688,47.75202,-18.47215,-5.059847,1002.187
0.156811714,-2.497775,3.182008,-2.344143,-1.033162,-0.0655004,-0.1163101,47.75202,-18.47215,-5.059847,1002.187
0.161867142,-2.312429,3.119469,-2.342632,-1.035681,-0.06254309,-0.1219562,47.75202,-18.47215,-5.059847,1002.187
0.166923046,-1.698289,2.693502,-2.586004,-1.034027,-0.07857892,-0.1214218,47.75202,-18.47215,-5.059847,1002.187
0.171978473,-1.207073,2.449499,-2.461987,-1.035608,-0.06696247,-0.1191967,47.75202,-18.47215,-5.059847,1002.187
0.177033901,-0.8387219,2.023953,-2.827677,-1.038005,-0.06851634,-0.1158622,47.75202,-18.47215,-5.059847,1002.187
0.182088852,-0.7156768,1.840929,-2.764685,-1.039586,-0.05928211,-0.1170488,47.38229,-18.11026,-4.159401,1002.187
0.187144279,-0.4088934,1.839772,-2.824067,-1.040054,-0.05837505,-0.1131913,47.38229,-18.11026,-4.159401,1002.187
0.192199707,0.3265684,1.778077,-2.822255,-1.040059,-0.06027094,-0.1165908,47.38229,-18.11026,-4.159401,1002.187
0.197255611,0.7552151,1.776922,-3.004129,-1.033743,-0.05867258,-0.1180461,47.38229,-18.11026,-4.159401,1002.187
0.202311039,1.061132,1.412396,-2.818672,-1.03329,-0.05716918,-0.1204059,47.38229,-18.11026,-4.159401,1002.185
0.207366466,1.244281,1.290372,-2.816843,-1.036171,-0.05255111,-0.107335,47.38229,-18.11026,-4.159401,1002.185
0.212421417,1.2435,1.350101,-2.937524,-1.034744,-0.05483543,-0.1155453,47.38229,-18.11026,-4.159401,1002.185
0.217476845,1.242776,1.409869,-2.690835,-1.034236,-0.0529587,-0.1102362,47.38229,-18.11026,-4.159401,1002.185
0.222532272,1.303235,1.045535,-2.811518,-1.033279,-0.05195374,-0.1111772,47.38229,-18.11026,-4.159401,1002.185
0.227587223,1.54753,1.347691,-2.748575,-1.039071,-0.04980066,-0.09957761,47.38229,-18.11026,-4.159401,1002.185
0.232642650,1.485299,1.04405,-2.685632,-1.035669,-0.05113953,-0.1034738,48.14808,-19.13932,-4.163497,1002.185
0.237698555,1.177974,0.9829119,-2.745161,-1.042971,-0.04892897,-0.09760357,48.14808,-19.13932,-4.163497,1002.185
0.242753982,1.115956,1.042872,-2.804672,-1.039049,-0.051746,-0.09962726,48.14808,-19.13932,-4.163497,1002.183
0.247813225,0.9314388,0.9816011,-2.802852,-1.036671,-0.04825385,-0.1024335,48.14808,-19.13932,-4.163497,1002.183
0.252864361,1.114631,1.223296,-2.556266,-1.032758,-0.04724379,-0.1000511,48.14808,-19.13932,-4.163497,1002.183
0.257919788,0.9301534,0.9196572,-2.493483,-1.0387,-0.04148155,-0.1022422,48.14808,-19.13932,-4.163497,1002.183
0.262975216,0.807051,0.7979618,-2.369504,-1.030936,-0.04173063,-0.1085457,48.14808,-19.13932,-4.163497,1002.183
0.268030643,0.6840066,0.6157651,-2.184368,-1.033876,-0.03938176,-0.1065432,48.14808,-19.13932,-4.163497,1002.183
0.273086548,0.3158685,0.6154163,-2.183034,-1.035816,-0.04277299,-0.1099624,48.14808,-19.13932,-4.163497,1002.183
0.278141975,0.1318929,0.4939121,-1.936896,-1.034856,-0.03939288,-0.107013,48.14808,-19.13932,-4.163497,1002.183
0.283196926,-0.1745622,0.2513285,-1.629658,-1.037458,-0.0281891,-0.1110125,48.12355,-18.09085,-4.165268,1002.183
0.288252354,-0.1132128,0.2512087,-1.567418,-1.031537,-0.03438823,-0.1121835,48.12355,-18.09085,-4.165268,1002.181
0.293307781,-0.1131609,-0.05185734,-1.566414,-1.038849,-0.03787239,-0.1160329,48.12355,-18.09085,-4.165268,1002.181
0.298362732,-0.1130513,-0.05182476,-1.198193,-1.038854,-0.03453163,-0.1116392,48.12355,-18.09085,-4.165268,1002.181
0.303418159,-0.6644273,-0.1122939,-1.136244,-1.043175,-0.03760206,-0.1068889,48.12355,-18.09085,-4.165268,1002.181
0.308474064,-0.9703051,-0.23336,-1.074295,-1.041209,-0.04139985,-0.110834,48.12355,-18.09085,-4.165268,1002.181
0.313529491,-1.030974,-0.2332515,-1.073659,-1.042649,-0.04290024,-0.109901,48.12355,-18.09085,-4.165268,1002.181
0.318584919,-1.091624,-0.3542606,-0.8281404,-1.048989,-0.04112251,-0.1064446,48.12355,-18.09085,-4.165268,1002.181
0.323639870,-1.152158,-0.4145588,-0.8276201,-1.044084,-0.03726811,-0.09777547,48.12355,-18.09085,-4.165268,1002.181
0.328695297,-1.519047,-0.4748762,-0.7659229,-1.043005,-0.04696245,-0.09898955,48.11489,-17.7208,-4.165894,1002.18
0.333750725,-1.640591,-0.7168893,-0.5818136,-1.044491,-0.03885628,-0.08967317,48.11489,-17.7208,-4.165894,1002.18
0.338806152,-1.823338,-0.655861,-0.3977815,-1.042917,-0.0504586,-0.09285544,48.11489,-17.7208,-4.165894,1002.18
0.343862057,-1.822154,-1.018821,-0.2751384,-1.044992,-0.03931638,-0.09207389,48.11489,-17.7208,-4.165894,1002.18
0.348917484,-1.821009,-1.260416,-0.03014093,-1.044021,-0.04547925,-0.1018148,48.11489,-17.7208,-4.165894,1002.18
0.353972435,-2.064959,-1.380799,-0.09128013,-1.039974,-0.05328674,-0.09534889,48.11489,-17.7208,-4.165894,1002.18
0.359027862,-2.247478,-1.561646,0.2148177,-1.043428,-0.04614015,-0.08938958,48.11489,-17.7208,-4.165894,1002.18
0.364083290,-2.368603,-1.318373,0.3370759,-1.041607,-0.04443289,-0.103726,48.11489,-17.7208,-4.165894,1002.18
0.369138241,-2.612228,-1.135849,0.2756484,-1.039111,-0.05020224,-0.1053325,48.11489,-17.7208,-4.165894,1002.18
0.374193668,-2.671865,-1.195637,0.5203192,-1.036144,-0.05164909,-0.1025248,48.11489,-17.7208,-4.165894,1002.18
0.379253864,-2.302556,-0.8315331,0.3363641,-1.037263,-0.04759295,-0.1148587,48.11489,-17.7208,-4.165894,1002.18
0.381776810,-1.934162,-1.013005,0.5199058,-1.03469,-0.05398284,-0.1073854,48.11489,-17.7208,-4.165894,1002.18
0.386832237,-1.687873,-0.5884193,0.6419339,-1.036174,-0.05159258,-0.1063531,48.11489,-17.7208,-4.165894,1002.18
0.391887665,-1.441718,-0.9515167,0.7027464,-1.038583,-0.05407674,-0.1059147,48.11489,-17.7208,-4.165894,1002.18
0.396943569,-1.685887,-0.8903221,0.7635399,-1.041939,-0.0604415,-0.107481,48.11489,-17.7208,-4.165894,1002.18
0.401998997,-1.684828,-1.192633,0.7630795,-1.037707,-0.05054123,-0.1134932,48.11489,-17.7208,-4.165894,1002.18
0.407057285,-1.683751,-1.31302,0.9462667,-1.034769,-0.05002861,-0.1115929,48.11489,-17.7208,-4.165894,1002.18
0.412109375,-1.682712,-1.191021,0.7008476,-1.039167,-0.05152703,-0.114462,48.11489,-17.7208,-4.165894,1002.18
0.417164802,-1.681655,-1.069098,0.8227619,-1.031691,-0.05691694,-0.1027008,48.11489,-17.7208,-4.165894,1002.18
0.422220230,-1.558023,-0.8867117,0.8834993,-1.037,-0.0618873,-0.1022981,48.11489,-17.7208,-4.165894,1002.18
0.427275181,-1.679581,-0.7045163,0.6993354,-1.032112,-0.06276201,-0.1028453,48.13942,-18.76927,-4.164123,1002.18
0.432331562,-1.739766,-0.6434578,0.8212892,-1.040009,-0.05941128,-0.1089093,48.13942,-18.76927,-4.164123,1002.18
0.437386513,-1.738711,-0.7036314,0.6371835,-1.03564,-0.06119005,-0.1147409,48.13942,-18.76927,-4.164123,1002.18
0.442441940,-1.676379,-0.8849038,0.5755482,-1.034614,-0.06031223,-0.1070682,48.13942,-18.76927,-4.164123,1002.18
0.447497368,-1.49153,-0.8238272,0.6364024,-1.034121,-0.06174094,-0.1085454,48.13942,-18.76927,-4.164123,1002.18
0.452553749,-1.613092,-0.3992838,0.5747868,-1.031135,-0.06512605,-0.1062659,48.13942,-18.76927,-4.164123,1002.178
0.457607746,-1.85723,-0.1567026,0.5132291,-1.032546,-0.06620368,-0.1010137,48.13942,-18.76927,-4.164123,1002.178
0.462663174,-1.611027,0.1461899,0.3905328,-1.033565,-0.06376195,-0.102857,48.13942,-18.76927,-4.164123,1002.178
0.467719078,-1.36494,0.872994,0.3290716,-1.035503,-0.06477803,-0.1023858,48.13942,-18.76927,-4.164123,1002.178
0.472774505,-1.486639,0.5090357,0.2064718,-1.030614,-0.06708349,-0.1048843,48.13942,-18.76927,-4.164123,1002.178
0.477829933,-1.66954,0.5692366,-0.3445423,-1.033989,-0.07007923,-0.1039711,48.11011,-17.72158,-4.614963,1002.178
0.482884884,-1.362158,0.6899776,-0.09953957,-1.029088,-0.06955145,-0.1006527,48.11011,-17.72158,-4.614963,1002.178
0.487940311,-0.9937091,0.4472709,-0.2218317,-1.034094,-0.06179039,-0.1051957,48.11011,-17.72158,-4.614963,1002.178
0.492995739,-1.054305,0.5075868,-0.4665171,-1.034579,-0.06704318,-0.1125059,48.11011,-17.72158,-4.614963,1002.176
0.498050690,-0.6860887,0.5678267,-0.4050466,-1.036622,-0.05977042,-0.1132592,48.11011,-17.72158,-4.614963,1002.176
0.503107071,-0.3180842,0.2646379,-0.7720484,-1.033581,-0.0604,-0.09989888,48.11011,-17.72158,-4.614963,1002.176
0.508162022,-0.1341072,0.3249733,-0.5879353,-1.035597,-0.05841333,-0.1050956,48.11011,-17.72158,-4.614963,1002.176
0.513217449,-0.01142779,0.4459819,-0.7712517,-1.033648,-0.05980065,-0.1075431,48.11011,-17.72158,-4.614963,1002.176
0.518272877,0.04979995,0.5668765,-0.8320215,-1.039044,-0.05746897,-0.1074328,48.11011,-17.72158,-4.614963,1002.176
0.523327827,0.2948241,0.6271172,-0.9538535,-1.039536,-0.0541373,-0.1030347,48.11011,-17.72158,-4.614963,1002.176
0.528383255,0.417157,0.8083807,-1.014431,-1.039576,-0.0535874,-0.1073291,48.11011,-17.72158,-4.614963,1002.176
0.533438682,0.5394515,0.8684506,-0.7689118,-1.039049,-0.051746,-0.09962726,48.11011,-17.72158,-4.614963,1002.18
0.538494587,0.6616885,0.8074034,-0.8296254,-1.038079,-0.05219296,-0.1010841,48.11011,-17.72158,-4.614963,1002.18
0.543550014,0.3549198,0.6857405,-0.951555,-1.038959,-0.05905511,-0.09885637,48.11011,-17.72158,-4.614963,1002.18
0.548605442,0.4772727,0.6247318,-0.7061325,-1.034111,-0.05414328,-0.09590484,48.11011,-17.72158,-4.614963,1002.18
0.553660393,0.1706199,0.7454761,-0.5832188,-1.038432,-0.05816518,-0.09261493,48.11011,-17.72158,-4.614963,1002.18
0.558715820,-0.07456202,0.8661253,-0.644049,-1.03612,-0.04883704,-0.09527224,48.11011,-17.72158,-4.614963,1002.18
0.563771248,-0.07451519,1.107816,-0.5824863,-1.038498,-0.05471141,-0.09587781,48.11011,-17.72158,-4.614963,1002.18
0.568826198,-0.1969865,0.9859648,-0.6433746,-1.040541,-0.04505644,-0.09321935,48.11011,-17.72158,-4.614963,1002.18
0.573881626,-0.503235,1.10652,-0.5817931,-1.036108,-0.05124045,-0.09724846,48.13221,-18.4609,-4.164643,1002.18
0.578937530,-1.176884,1.105901,-0.5814084,-1.031675,-0.04980561,-0.09007259,48.13221,-18.4609,-4.164643,1002.18
0.583992958,-1.727553,1.286921,-0.6422782,-1.032712,-0.04447413,-0.08992729,48.13221,-18.4609,-4.164643,1002.18
0.589048386,-2.032763,2.013008,-0.7643063,-1.026952,-0.04799437,-0.1077851,48.13221,-18.4609,-4.164643,1002.18
0.594103336,-2.153985,2.314557,-0.8250227,-1.028036,-0.04305033,-0.1143517,48.13221,-18.4609,-4.164643,1002.18
0.599158764,-1.907576,2.373662,-1.130487,-1.032927,-0.0435993,-0.1162345,48.13221,-18.4609,-4.164643,1002.18
0.604214191,-1.355008,2.190456,-1.37464,-1.032986,-0.03872892,-0.1165889,48.13221,-18.4609,-4.164643,1002.18
0.609269619,-0.9865639,1.825632,-1.190129,-1.037953,-0.03770587,-0.126091,48.13221,-18.4609,-4.164643,1002.18
0.611797333,-0.7411408,1.643325,-1.189755,-1.034992,-0.03628417,-0.1198591,48.13221,-18.4609,-4.164643,1002.18
0.616852760,-0.6794161,1.339498,-1.188969,-1.035455,-0.04014859,-0.1223467,48.13221,-18.4609,-4.164643,1002.182
0.621908188,-0.4952121,1.156923,-1.310654,-1.039927,-0.03294247,-0.1216425,48.13221,-18.4609,-4.164643,1002.182
0.626963138,-0.5562371,0.7322658,-1.493459,-1.042903,-0.03338445,-0.1283282,48.4894,-18.08192,-4.617271,1002.182
0.632019520,-0.1270357,0.5500723,-1.370108,-1.044794,-0.03877046,-0.1284472,48.4894,-18.08192,-4.617271,1002.182
0.637074470,0.2406562,0.2468756,-1.30807,-1.048607,-0.04520081,-0.1261808,48.4894,-18.08192,-4.617271,1002.182
0.642129898,0.2404473,0.004504301,-1.552073,-1.048999,-0.04872017,-0.1190852,48.4894,-18.08192,-4.617271,1002.182
0.647185326,0.1789986,-0.3589085,-1.612314,-1.05565,-0.05632606,-0.106768,48.4894,-18.08192,-4.617271,1002.182
0.652240276,0.3014621,-0.2375654,-1.550085,-1.053092,-0.059354,-0.0963366,48.4894,-18.08192,-4.617271,1002.182
0.657295704,0.5464052,-0.4190926,-1.365483,-1.0409,-0.06006413,-0.09886366,48.4894,-18.08192,-4.617271,1002.18
0.662351131,0.66858,-0.2371529,-1.180959,-1.046215,-0.06121447,-0.09357636,48.4894,-18.08192,-4.617271,1002.18
0.667407036,0.7907359,-0.4792772,-1.11904,-1.046622,-0.06803928,-0.09326722,48.4894,-18.08192,-4.617271,1002.18
0.672462463,0.7901813,-0.4184363,-0.7510612,-1.042699,-0.07323851,-0.09870273,47.36885,-17.74098,-4.609095,1002.18
0.677517414,0.8509825,-0.5998499,-0.6281962,-1.040697,-0.06805735,-0.08470612,47.36885,-17.74098,-4.609095,1002.18
0.682572842,1.156724,-0.2966028,-0.5666242,-1.039857,-0.0606453,-0.09122823,47.36885,-17.74098,-4.609095,1002.18
0.687628269,1.707464,-0.2358006,-0.5662298,-1.035027,-0.063317,-0.1018744,47.36885,-17.74098,-4.609095,1002.18
0.692683697,1.583853,-0.3568082,-0.5659125,-1.039441,-0.05955053,-0.0988644,47.36885,-17.74098,-4.609095,1002.18
0.697738647,1.521599,-0.7805337,-0.4432024,-1.030242,-0.05352773,-0.09975579,47.36885,-17.74098,-4.609095,1002.178
0.702795029,1.398125,-0.9013513,-0.1368258,-1.034623,-0.05696441,-0.103153,47.36885,-17.74098,-4.609095,1002.178
0.707853317,1.274691,-0.9613248,-0.2591521,-1.03274,-0.05013353,-0.1020397,47.36885,-17.74098,-4.609095,1002.178
0.712905407,1.212592,-1.32415,-0.1977543,-1.04312,-0.04436833,-0.1099339,47.36885,-17.74098,-4.609095,1002.178
0.717960834,0.9054773,-1.323375,0.04717541,-1.040184,-0.04432792,-0.1090031,47.36885,-17.74098,-4.609095,1002.178
0.723015785,1.027446,-1.201388,0.1695966,-1.044633,-0.04240082,-0.1132208,48.12743,-18.46167,-4.613712,1002.178
0.728071213,1.08804,-1.261154,0.4143339,-1.046079,-0.04531782,-0.1151963,48.12743,-18.46167,-4.613712,1002.178
0.733126640,1.271172,-1.260305,0.4140737,-1.045545,-0.04349055,-0.1065374,48.12743,-18.46167,-4.613712,1002.178
0.738182545,1.209115,-1.138376,0.5362067,-1.052025,-0.0405,-0.1193264,48.12743,-18.46167,-4.613712,1002.178
0.743237972,1.147077,-1.50109,0.3522609,-1.045587,-0.04436433,-0.1132617,48.12743,-18.46167,-4.613712,1002.178
0.748292923,1.02378,-1.31849,0.2295889,-1.046928,-0.05033353,-0.1062194,48.12743,-18.46167,-4.613712,1002.178
0.753348350,0.7167841,-1.378277,0.4130343,-1.045977,-0.05074518,-0.1100689,48.12743,-18.46167,-4.613712,1002.178
0.758403778,0.4099615,-1.498491,0.4128133,-1.04385,-0.05722186,-0.09732729,48.12743,-18.46167,-4.613712,1002.178
0.763459206,-0.01916718,-1.497493,0.4737698,-1.043335,-0.06154738,-0.1003146,48.12743,-18.46167,-4.613712,1002.178
0.768514156,-0.8156191,-1.617593,0.4734336,-1.044286,-0.05780204,-0.09159286,48.12743,-18.46167,-4.613712,1002.178
0.773570538,-1.305256,-1.616615,0.2895273,-1.036927,-0.06725815,-0.1009991,47.74814,-18.10133,-4.611403,1002.178
0.778625488,-2.100977,-1.252247,0.4729544,-1.042325,-0.06349572,-0.09893741,47.74814,-18.10133,-4.611403,1002.177
0.783680916,-2.283454,-1.614851,0.7786785,-1.033602,-0.05988542,-0.1018006,47.74814,-18.10133,-4.611403,1002.177
0.788736343,-2.894687,-1.492757,0.6558154,-1.038961,-0.05952731,-0.09982586,47.74814,-18.10133,-4.611403,1002.177
0.793791294,-3.137924,-1.249546,0.5329527,-1.028845,-0.05385258,-0.1088736,47.74814,-18.10133,-4.611403,1002.177
0.798846722,-3.074732,-1.369936,0.8998356,-1.033681,-0.05783413,-0.1089291,47.74814,-18.10133,-4.611403,1002.177
0.803902149,-3.195338,-1.369075,0.8992704,-1.029708,-0.05598562,-0.09742956,47.74814,-18.10133,-4.611403,1002.177
0.808958054,-3.131994,-1.186519,0.9599404,-1.034069,-0.06040909,-0.0998945,47.74814,-18.10133,-4.611403,1002.177
0.814013481,-2.946153,-1.00404,0.7144935,-1.02978,-0.05585141,-0.1065218,47.74814,-18.10133,-4.611403,1002.177
0.819068909,-2.821746,-0.7610793,0.6528481,-1.029153,-0.06514621,-0.1024551,47.7568,-18.47137,-4.610779,1002.177
0.824123859,-2.45238,-0.7000804,0.407594,-1.034152,-0.06263591,-0.1138342,47.7568,-18.47137,-4.610779,1002.177
0.829179287,-2.083227,-0.578504,0.3461029,-1.026317,-0.06253993,-0.1105545,47.7568,-18.47137,-4.610779,1002.177
0.834234714,-1.530491,-0.4569468,0.2234924,-1.02777,-0.06449134,-0.1120266,47.7568,-18.47137,-4.610779,1002.177
0.839289665,-1.406973,-0.7595299,0.3457835,-1.032081,-0.06710369,-0.1053497,47.7568,-18.47137,-4.610779,1002.177
0.841819286,-0.9775827,-0.5775578,0.3456749,-1.029152,-0.06943137,-0.1087878,47.7568,-18.47137,-4.610779,1002.177
0.846873283,-0.7931721,-0.6377347,0.4066543,-1.029122,-0.06948788,-0.1049595,47.7568,-18.47137,-4.610779,1002.177
0.851928234,-0.6088582,-0.5162165,0.2228092,-1.030554,-0.07005093,-0.101609,47.7568,-18.47137,-4.610779,1002.177
0.856983662,-0.6085142,-0.4553524,0.3451008,-1.030583,-0.06713999,-0.101056,47.7568,-18.47137,-4.610779,1002.177
0.862039566,-0.8532644,-0.5156632,0.2837066,-1.033507,-0.06625012,-0.09909075,47.7568,-18.47137,-4.610779,1002.175
0.867094994,-1.097803,-0.6363997,0.03868448,-1.033045,-0.06333715,-0.09806359,47.7568,-18.47137,-4.610779,1002.175
0.872150421,-1.342208,-0.2725901,0.0386217,-1.02871,-0.05981572,-0.1004088,48.11399,-18.0924,-5.063406,1002.175
0.877205372,-1.525199,-0.03016455,-0.08379568,-1.031065,-0.06049583,-0.09035004,48.11399,-18.0924,-5.063406,1002.175
0.882260799,-1.769316,0.2727055,-0.2673904,-1.032557,-0.05999438,-0.09319571,48.11399,-18.0924,-5.063406,1002.175
0.887316227,-2.135797,0.7570618,-0.389654,-1.038398,-0.06346539,-0.09610123,48.11399,-18.0924,-5.063406,1002.175
0.892371654,-2.318233,1.059475,-0.450625,-1.039899,-0.0605676,-0.09649216,48.11399,-18.0924,-5.063406,1002.175
0.897427559,-2.50063,1.11935,-0.450265,-1.038426,-0.06293668,-0.09896005,48.11399,-18.0924,-5.063406,1002.175
0.902482986,-2.192668,1.058049,-0.6335718,-1.043459,-0.05227175,-0.1024715,48.11399,-18.0924,-5.063406,1002.175
0.907537937,-2.068753,0.9968259,-0.8168404,-1.039042,-0.05889971,-0.1093842,48.11399,-18.0924,-5.063406,1002.175
0.912593365,-1.638582,0.875044,-0.938778,-1.036142,-0.05546204,-0.107888,48.11399,-18.0924,-5.063406,1002.175
0.917648792,-1.515035,0.9957072,-0.938169,-1.034192,-0.05780084,-0.1117959,48.50283,-18.45119,-4.167577,1002.175
0.922703743,-1.207749,0.9950816,-0.9375604,-1.031274,-0.05296775,-0.1059556,48.50283,-18.45119,-4.167577,1002.175
0.927759171,-1.145751,0.6916434,-0.6922044,-1.030818,-0.05337436,-0.1107578,48.50283,-18.45119,-4.167577,1002.175
0.932815075,-0.8999176,0.3883197,-0.630573,-1.032741,-0.051085,-0.1035001,48.50283,-18.45119,-4.167577,1002.175
0.937870502,-0.8380932,0.3880567,-0.5077453,-1.037082,-0.04745273,-0.09139794,48.50283,-18.45119,-4.167577,1002.175
0.942925930,-1.082661,0.2061555,-0.5686614,-1.035534,-0.05805414,-0.09646954,48.50283,-18.45119,-4.167577,1002.175
0.947980881,-1.510852,0.5088581,-0.5071076,-1.036975,-0.05193568,-0.08433158,48.50283,-18.45119,-4.167577,1002.175
0.953036308,-2.06133,0.5085384,-0.506789,-1.03649,-0.05430174,-0.08822633,48.50283,-18.45119,-4.167577,1002.175
0.958091736,-2.30511,0.6899715,-0.3228233,-1.042829,-0.05919139,-0.09451447,48.50283,-18.45119,-4.167577,1002.175
0.963147163,-2.487458,0.7500778,-0.5674836,-1.036963,-0.06052719,-0.09556137,48.50283,-18.45119,-4.167577,1002.175
0.968203068,-2.73097,1.052458,-0.3223216,-1.040829,-0.05876759,-0.08782006,48.11877,-18.09163,-4.614337,1002.175
0.973258495,-2.790495,0.9306409,-0.505728,-1.041312,-0.06116596,-0.09074896,48.11877,-18.09163,-4.614337,1002.175
0.978316307,-2.91126,1.051193,-0.6890385,-1.035061,-0.05611385,-0.09546719,48.11877,-18.09163,-4.614337,1002.175
0.983368874,-2.909412,0.8689132,-0.5050159,-1.035607,-0.05268329,-0.09776861,48.11877,-18.09163,-4.614337,1002.175
0.988424301,-2.968862,0.6866338,-0.5658952,-1.0302,-0.05598764,-0.0979037,48.11877,-18.09163,-4.614337,1002.175
0.993483543,-2.84446,0.5650658,-0.5043624,-1.035676,-0.04922246,-0.10151,48.11877,-18.09163,-4.614337,1002.175
0.998534679,-2.720135,0.6858855,-0.8100476,-1.036582,-0.05175,-0.09629941,48.11877,-18.09163,-4.614337,1002.175
1.003590584,-2.595889,0.7459944,-0.8707353,-1.037121,-0.04928504,-0.0991042,48.11877,-18.09163,-4.614337,1002.175
1.008646011,-2.532942,0.7455639,-0.9926391,-1.043111,-0.0458132,-0.1109282,48.11877,-18.09163,-4.614337,1002.175
1.013701439,-2.408774,0.8056542,-1.114447,-1.050941,-0.04544403,-0.1127598,48.11877,-18.09163,-4.614337,1002.175
1.018756389,-2.407242,0.7445512,-1.419768,-1.05139,-0.04457228,-0.1065096,47.37751,-18.11103,-4.60847,1002.175
1.023811817,-2.160655,0.6835057,-1.357699,-1.047989,-0.04448041,-0.1084544,47.37751,-18.11103,-4.60847,1002.175
1.028867244,-2.098019,0.8648098,-1.418043,-1.048954,-0.04547125,-0.1084705,47.37751,-18.11103,-4.60847,1002.175
1.033922672,-2.586851,0.682533,-1.417113,-1.046471,-0.04788572,-0.1066403,47.37751,-18.11103,-4.60847,1002.175
1.038978576,-2.707763,1.106054,-1.293811,-1.048989,-0.05159579,-0.1220309,47.37751,-18.11103,-4.60847,1002.175
1.044034004,-2.583525,0.9842605,-1.231763,-1.052307,-0.04850937,-0.104686,47.37751,-18.11103,-4.60847,1002.175
1.049088955,-2.827015,0.6202512,-1.230951,-1.052765,-0.05142939,-0.1052346,47.37751,-18.11103,-4.60847,1002.175
1.054144382,-3.254129,0.3775312,-1.168981,-1.041108,-0.04539646,-0.1037552,47.37751,-18.11103,-4.60847,1002.175
1.059199810,-3.558457,0.4378719,-1.10705,-1.039182,-0.04435919,-0.1056621,47.37751,-18.11103,-4.60847,1002.175
1.064254761,-4.475281,0.4375587,-0.9227646,-1.030758,-0.05110516,-0.09968935,47.76401,-18.77975,-4.610258,1002.175
1.066782951,-4.904364,0.5587525,-0.8615296,-1.036151,-0.05496865,-0.1083541,47.76401,-18.77975,-4.610258,1002.177
1.071838379,-5.885125,0.4981556,-0.8002946,-1.032819,-0.05141594,-0.1140404,47.76401,-18.77975,-4.610258,1002.177
1.076893329,-6.191613,0.7405431,-0.6778245,-1.038107,-0.05594941,-0.1102756,47.76401,-18.77975,-4.610258,1002.177
1.081948757,-6.4981,0.2557681,-0.4941194,-1.03523,-0.05437231,-0.1145715,47.76401,-18.77975,-4.610258,1002.177
1.087004185,-6.4981,0.2557681,-0.4941194,-1.034774,-0.05811261,-0.1242459,47.76401,-18.77975,-4.610258,1002.177
1.092060089,-6.74329,-0.1078131,-0.1879443,-1.035204,-0.0563247,-0.1141426,47.76401,-18.77975,-4.610258,1002.177
1.097115516,-6.4981,-0.04721625,-0.06547422,-1.029684,-0.06983496,-0.1150169,47.76401,-18.77975,-4.610258,1002.177
1.102170944,-6.375505,-0.4713944,0.05699584,-1.036053,-0.06847999,-0.1158797,47.76401,-18.77975,-4.610258,1002.177
1.107225895,-6.25291,-0.4107975,0.485641,-1.032148,-0.07174098,-0.1207871,47.76401,-18.77975,-4.610258,1002.177
1.112281322,-5.701232,-0.5319912,0.7305812,-1.036496,-0.07476196,-0.1193865,47.76401,-18.77975,-4.610258,1002.177
1.117336750,-5.026959,-0.4713944,0.9142863,-1.033058,-0.07759514,-0.1209272,48.10533,-17.72235,-5.064032,1002.177
1.122391701,-4.720471,-0.5319912,1.159226,-1.031989,-0.07822575,-0.109942,48.10533,-17.72235,-5.064032,1002.177
1.127448082,-4.291388,-0.1078131,1.097991,-1.033365,-0.08888876,-0.1145088,48.10533,-17.72235,-5.064032,1002.177
1.132503032,-3.617115,0.1345744,1.036756,-1.035227,-0.09194905,-0.1073877,48.10533,-17.72235,-5.064032,1002.177
1.137558460,-2.881544,0.5587525,1.036756,-1.031636,-0.1026836,-0.1009919,48.10533,-17.72235,-5.064032,1002.177
1.142613888,-2.084676,0.4981556,1.036756,-1.02633,-0.1019914,-0.1082058,48.10533,-17.72235,-5.064032,1002.177
1.147668838,-1.4717,0.5587525,0.9755213,-1.023574,-0.0949516,-0.1200217,48.10533,-17.72235,-5.064032,1002.177
1.152724266,-0.6748318,0.5587525,0.6693462,-1.026556,-0.08967061,-0.1189018,48.10533,-17.72235,-5.064032,1002.177
1.157779693,-0.1231537,0.0739775,0.424406,-1.032347,-0.09228197,-0.1141259,48.10533,-17.72235,-5.064032,1002.177
1.162835598,0.6124171,0.0739775,0.301936,-1.033407,-0.08976254,-0.1212332,47.75202,-18.47215,-5.059847,1002.177
1.167891025,0.8576074,-0.653185,0.301936,-1.03192,-0.0783529,-0.1013284,47.75202,-18.47215,-5.059847,1002.177
1.172946453,1.225393,-0.5925881,0.1182309,-1.04078,-0.07552081,-0.1064389,47.75202,-18.47215,-5.059847,1002.177
1.178001404,1.960963,-1.077363,0.424406,-1.042293,-0.06831666,-0.1019328,47.75202,-18.47215,-5.059847,1002.177
1.183056831,2.757832,-1.380347,0.301936,-1.043418,-0.05425239,-0.1001284,47.75202,-18.47215,-5.059847,1002.177
1.188112259,3.432105,-2.10751,0.7918162,-1.0439,-0.05474781,-0.1001365,47.75202,-18.47215,-5.059847,1002.177
1.193167209,3.799891,-2.410494,0.9142863,-1.045456,-0.03984712,-0.08968923,47.75202,-18.47215,-5.059847,1002.181
1.198223591,4.106379,-2.652882,1.342931,-1.048553,-0.031972,-0.09951364,47.75202,-18.47215,-5.059847,1002.181
1.203278541,4.841949,-3.198254,1.342931,-1.044203,-0.02847881,-0.09994474,47.75202,-18.47215,-5.059847,1002.181
1.208333969,4.596759,-3.380044,1.342931,-1.045286,-0.02068035,-0.1021301,47.75202,-18.47215,-5.059847,1002.181
1.213389396,4.535461,-3.440641,1.281696,-1.037941,-0.02439936,-0.1046878,48.11877,-18.09163,-4.614337,1002.181
1.218444347,4.228974,-3.501238,1.159226,-1.034635,-0.01365762,-0.1030098,48.11877,-18.09163,-4.614337,1002.181
1.223499775,4.045081,-3.198254,0.8530512,-1.035607,-0.01701655,-0.1073947,48.11877,-18.09163,-4.614337,1002.181
1.228555202,3.677295,-3.016463,1.097991,-1.026841,-0.01776911,-0.1113268,48.11877,-18.09163,-4.614337,1002.181
1.233611584,2.819129,-2.652882,0.9142863,-1.03125,-0.01544044,-0.1097896,48.11877,-18.09163,-4.614337,1002.179
1.238666534,1.715773,-2.471091,1.097991,-1.029676,-0.02704276,-0.1129719,48.11877,-18.09163,-4.614337,1002.179
1.243721962,0.7350122,-2.349898,1.097991,-1.027594,-0.03248321,-0.1045123,48.11877,-18.09163,-4.614337,1002.179
1.248780250,0.1833341,-2.046913,1.220461,-1.028749,-0.02598129,-0.1177412,48.11877,-18.09163,-4.614337,1002.179
1.253832340,-0.1231537,-1.440944,0.9755213,-1.033555,-0.03287376,-0.1183497,48.11877,-18.09163,-4.614337,1002.179
1.258887768,-0.06185613,-1.440944,0.9142863,-1.032656,-0.03795095,-0.1357224,48.11877,-18.09163,-4.614337,1002.179
1.263942718,-0.0005585654,-1.683332,0.9755213,-1.031183,-0.03413192,-0.1289367,47.74336,-18.1021,-5.060472,1002.179
1.268999100,0.1833341,-2.531688,1.097991,-1.037529,-0.02948564,-0.1220561,47.74336,-18.1021,-5.060472,1002.179
1.274054050,0.4285244,-3.07706,1.281696,-1.044298,-0.0292537,-0.1133686,47.74336,-18.1021,-5.060472,1002.181
1.279109478,0.5511195,-3.561835,1.159226,-1.04282,-0.02782394,-0.1095162,47.74336,-18.1021,-5.060472,1002.181
1.284164905,0.7350122,-3.925416,1.342931,-1.03939,-0.02540636,-0.1042209,47.74336,-18.1021,-5.060472,1002.181
1.289219856,0.5511195,-3.743626,1.220461,-1.038952,-0.01244995,-0.09144819,47.74336,-18.1021,-5.060472,1002.181
1.294275284,0.8576074,-3.86482,1.465401,-1.035922,-0.01877424,-0.08780755,47.74336,-18.1021,-5.060472,1002.181
1.296803474,0.9802025,-3.683029,1.404166,-1.041795,-0.01409062,-0.08284545,47.74336,-18.1021,-5.060472,1002.181
1.301858902,0.6737146,-3.622432,1.097991,-1.044211,-0.01560919,-0.0819037,47.74336,-18.1021,-5.060472,1002.181
1.306913853,0.6737146,-3.683029,1.097991,-1.042342,-0.01351449,-0.08952819,47.74336,-18.1021,-5.060472,1002.181
1.311969280,0.9189049,-3.683029,0.9755213,-1.049468,-0.01829623,-0.07138973,48.4894,-18.08192,-4.617271,1002.177
1.317024708,1.164095,-3.86482,0.9142863,-1.049104,-0.01758184,-0.08621637,48.4894,-18.08192,-4.617271,1002.177
1.322084427,1.470583,-4.228401,0.7918162,-1.044809,-0.01255902,-0.0913956,48.4894,-18.08192,-4.617271,1002.177
1.327136040,1.960963,-4.167804,0.6693462,-1.044326,-0.0215854,-0.1055134,48.4894,-18.08192,-4.617271,1002.177
1.332190990,2.328749,-4.652579,0.7305812,-1.051713,-0.01683722,-0.1067592,48.4894,-18.08192,-4.617271,1002.177
1.337246418,2.573939,-4.83437,0.9142863,-1.049265,-0.01061779,-0.09657043,48.4894,-18.08192,-4.617271,1002.177
1.342301845,2.022261,-5.622129,0.6081111,-1.05804,-0.01460847,-0.1008977,48.4894,-18.08192,-4.617271,1002.177
1.347356796,1.838368,-6.167501,0.8530512,-1.053566,-0.01705723,-0.09429966,48.4894,-18.08192,-4.617271,1002.177
1.352412224,1.470583,-7.015857,1.220461,-1.059912,-0.01145947,-0.0859586,48.4894,-18.08192,-4.617271,1002.177
1.357468128,1.28669,-7.864213,1.404166,-1.056016,-0.008038945,-0.08207848,48.4894,-18.08192,-4.617271,1002.177
1.362523556,1.0415,-8.71257,1.649107,-1.053995,-0.005275314,-0.069101,47.74814,-18.10133,-4.611403,1002.177
1.367578983,1.102798,-9.439733,1.465401,-1.048114,-0.005687897,-0.06677331,47.74814,-18.10133,-4.611403,1002.177
1.372634411,1.715773,-10.16689,1.281696,-1.04678,0.00314986,-0.07039134,47.74814,-18.10133,-4.611403,1002.177
1.377689361,2.206154,-10.77286,1.587872,-1.041552,0.009699299,-0.07889187,47.74814,-18.10133,-4.611403,1002.177
1.382744789,3.06432,-10.83346,1.342931,-1.038798,0.02150351,-0.08388419,47.74814,-18.10133,-4.611403,1002.177
1.387800217,4.290271,-11.01525,1.342931,-1.033542,0.02419054,-0.09439818,47.74814,-18.10133,-4.611403,1002.177
1.392856121,5.148437,-10.71227,1.281696,-1.026342,0.03169249,-0.09906311,47.74814,-18.10133,-4.611403,1002.177
1.397911548,5.884008,-10.34869,0.9755213,-1.021673,0.0440759,-0.1078889,47.74814,-18.10133,-4.611403,1002.179
1.402966499,6.067901,-10.0457,0.6081111,-1.019308,0.04616557,-0.1145606,47.74814,-18.10133,-4.611403,1002.179
1.408021927,5.884008,-9.560926,0.301936,-1.020286,0.04567518,-0.1155214,47.74725,-18.47292,-5.508916,1002.179
1.413077354,5.209735,-9.197345,-0.1267093,-1.016318,0.04467633,-0.1088817,47.74725,-18.47292,-5.508916,1002.179
1.418132305,4.474164,-8.954957,-0.2491793,-1.012915,0.04238599,-0.1142384,47.74725,-18.47292,-5.508916,1002.179
1.423187733,3.493403,-7.74302,-0.7390596,-1.002785,0.04803248,-0.1213719,47.74725,-18.47292,-5.508916,1002.179
1.428243637,3.248212,-7.561229,-1.535115,-1.035712,0.03217566,-0.1104524,47.74725,-18.47292,-5.508916,1002.179
1.433299065,2.696534,-8.227795,-1.47388,-1.045143,0.0194824,-0.08674811,47.74725,-18.47292,-5.508916,1002.179
1.438354492,1.28669,-8.833763,-1.535115,-1.026955,0.01814779,-0.07259135,47.74725,-18.47292,-5.508916,1002.183
1.443409920,0.8576074,-8.894361,-1.22894,-1.02835,0.01561116,-0.06737635,47.74725,-18.47292,-5.508916,1002.183
1.448464870,1.225393,-8.591376,-1.290175,-1.030281,0.02124833,-0.05620349,47.74725,-18.47292,-5.508916,1002.183
1.453523159,2.144856,-8.348989,-0.9839997,-1.036215,0.02604497,-0.05889801,47.74725,-18.47292,-5.508916,1002.183
1.458575725,2.635237,-8.773167,-0.9839997,-1.044025,0.02733028,-0.05687651,48.091,-17.72467,-6.411238,1002.183
1.463631630,3.003022,-9.076151,-0.7390596,-1.048518,0.04028763,-0.05028094,48.091,-17.72467,-6.411238,1002.183
1.468687057,3.432105,-9.318539,-0.5553545,-1.049011,0.04171635,-0.04880371,48.091,-17.72467,-6.411238,1002.183
1.473742008,4.290271,-9.742717,-0.4328844,-1.046222,0.05631141,-0.04510788,48.091,-17.72467,-6.411238,1002.183
1.478797436,4.719354,-10.16689,-0.1879443,-1.041798,0.05919112,-0.0369377,48.091,-17.72467,-6.411238,1002.181
1.483852863,5.57752,-10.65167,0.1182309,-1.045287,0.07306868,-0.0255407,48.091,-17.72467,-6.411238,1002.181
1.488907814,6.374388,-11.13645,0.424406,-1.041448,0.08373474,-0.01812462,48.091,-17.72467,-6.411238,1002.181
1.493963241,6.926066,-11.9242,0.9142863,-1.043558,0.09922571,-0.01531721,48.091,-17.72467,-6.411238,1002.181
1.499018669,7.293852,-12.71196,1.710342,-1.041047,0.09866474,-0.007216391,48.091,-17.72467,-6.411238,1002.181
1.504074573,7.60034,-13.31793,2.383927,-1.042067,0.1149134,0.01139883,48.091,-17.72467,-6.411238,1002.181
1.509130001,7.784233,-14.34808,3.302452,-1.046368,0.1127592,0.02000231,48.47029,-18.08502,-6.413546,1002.181
1.514185429,7.60034,-15.43882,4.343448,-1.052332,0.1257034,0.02565394,48.47029,-18.08502,-6.413546,1002.181
1.519240379,6.987364,-16.34777,5.506913,-1.060061,0.1306463,0.0435665,48.47029,-18.08502,-6.413546,1002.179
1.521768570,6.374388,-17.19613,6.058029,-1.066852,0.1328235,0.0523036,48.47029,-18.08502,-6.413546,1002.179
1.526823997,5.700115,-18.16568,7.282729,-1.07456,0.1320152,0.06432475,48.47029,-18.08502,-6.413546,1002.179
1.531878948,4.045081,-19.25643,9.119781,-1.084246,0.1383595,0.08372769,48.47029,-18.08502,-6.413546,1002.179
1.536934376,1.838368,-20.71075,10.65066,-1.09585,0.1417495,0.1030737,48.47029,-18.08502,-6.413546,1002.179
1.541989803,-0.5522367,-22.16508,12.85512,-1.096762,0.1458964,0.1175503,48.47029,-18.08502,-6.413546,1002.179
1.547044754,-2.881544,-23.6194,15.18205,-1.100546,0.1451254,0.1319291,48.47029,-18.08502,-6.413546,1002.179
1.552101135,-5.149554,-25.01313,17.38651,-1.106418,0.1555179,0.1456538,48.47029,-18.08502,-6.413546,1002.179
1.557156086,-7.172374,-27.01283,19.71344,-1.102859,0.1581746,0.1677103,48.10423,-18.46543,-6.794904,1002.179
1.562211513,-8.888705,-29.01252,22.10161,-1.099957,0.1706548,0.1828414,48.10423,-18.46543,-6.794904,1002.179
1.567266941,-10.17595,-31.01222,24.55101,-1.111194,0.1790373,0.194172,48.10423,-18.46543,-6.794904,1002.179
1.572321892,-11.4632,-33.43609,27.12288,-1.095993,0.1825185,0.2080007,48.10423,-18.46543,-6.794904,1002.179
1.577377319,-12.32137,-35.98116,29.81722,-1.097189,0.2014744,0.208015,48.10423,-18.46543,-6.794904,1002.179
1.582432747,-12.81175,-39.1322,32.14415,-1.088587,0.2081651,0.1942198,48.10423,-18.46543,-6.794904,1002.179
1.587488174,-13.48602,-41.79846,34.22614,-1.089581,0.2257951,0.2181362,48.10423,-18.46543,-6.794904,1002.179
1.592544079,-13.48602,-44.8889,36.2469,-1.093685,0.2379937,0.210825,48.10423,-18.46543,-6.794904,1002.179
1.597599506,-13.42473,-47.73696,38.39013,-1.099296,0.2611953,0.2143402,48.10423,-18.46543,-6.794904,1002.179
1.602654457,-12.44396,-50.64561,40.47211,-1.110929,0.289356,0.2041545,48.10423,-18.46543,-6.794904,1002.178
1.607709885,-10.54374,-53.49366,42.86028,-1.114093,0.310686,0.205684,48.45732,-18.08712,-7.632447,1002.178
1.612765312,-8.888705,-56.5841,44.94227,-1.128044,0.3257197,0.1918354,48.45732,-18.08712,-7.632447,1002.178
1.617825031,-7.111076,-59.73514,46.96303,-1.133983,0.327669,0.184281,48.45732,-18.08712,-7.632447,1002.178
1.622876644,-4.781768,-63.18916,49.22873,-1.145581,0.3134319,0.1782838,48.45732,-18.08712,-7.632447,1002.178
1.627931595,-2.881544,-66.4614,51.12701,-1.152453,0.3062358,0.1628457,48.45732,-18.08712,-7.632447,1002.178
1.632987022,-1.71689,-69.37004,53.08653,-1.153997,0.2749752,0.1687684,48.45732,-18.08712,-7.632447,1002.178
1.638042450,-1.532998,-72.58167,55.53593,-1.165777,0.2473086,0.1820605,48.45732,-18.08712,-7.632447,1002.178
1.643097401,-2.084676,-75.42973,58.29151,-1.184094,0.229878,0.1860994,48.45732,-18.08712,-7.632447,1002.178
1.648152828,-3.371925,-77.61121,60.55721,-1.184176,0.2062636,0.2032139,48.45732,-18.08712,-7.632447,1002.178
1.653208256,-4.168793,-79.30793,62.94537,-1.195816,0.197341,0.1997459,48.47917,-20.25037,-10.32321,1002.178
1.658264160,-4.536578,-80.51987,65.51724,-1.194848,0.1945188,0.1943988,48.47917,-20.25037,-10.32321,1002.178
1.663319588,-4.046198,-80.33807,67.84418,-1.167469,0.194936,0.2003743,48.47917,-20.25037,-10.32321,1002.178
1.668375015,-3.371925,-79.36852,69.55875,-1.133308,0.2074762,0.2176053,48.47917,-20.25037,-10.32321,1002.178
1.673429966,-0.7361293,-76.33868,70.78345,-1.094717,0.2105058,0.2254563,48.47917,-20.25037,-10.32321,1002.178
1.678485393,4.167676,-71.18795,72.00816,-1.074832,0.2054339,0.2639184,48.47917,-20.25037,-10.32321,1002.178
1.683540821,9.194077,-65.18886,73.29409,-1.043553,0.177883,0.2902115,48.47917,-20.25037,-10.32321,1002.176
1.688595772,12.13636,-59.37156,74.82497,-1.026277,0.1283671,0.3036312,48.47917,-20.25037,-10.32321,1002.176
1.693651199,9.255374,-54.5844,75.74349,-1.031453,0.06225107,0.2929035,48.47917,-20.25037,-10.32321,1002.176
1.698707104,2.267451,-50.64561,75.25362,-1.049425,0.02462364,0.2485505,48.47917,-20.25037,-10.32321,1002.176
1.703762531,-5.701232,-46.70681,73.4778,-1.053566,-0.001194318,0.1799505,47.74368,-22.12609,-13.84262,1002.176
1.708817959,-10.60504,-42.82861,71.2121,-1.047894,-0.01506362,0.07278237,47.74368,-22.12609,-13.84262,1002.176
1.713873386,-10.48244,-39.2534,69.37505,-1.024834,-0.02775622,0.006173815,47.74368,-22.12609,-13.84262,1002.176
1.718928337,-7.662754,-36.10236,67.90541,-1.012242,-0.06062784,0.007134383,47.74368,-22.12609,-13.84262,1002.176
1.723983765,-6.069017,-33.2543,67.23183,-1.040146,-0.08760764,0.01963883,47.74368,-22.12609,-13.84262,1002.178
1.729039669,-7.907944,-32.52714,65.94588,-1.061885,-0.1150888,0.008134585,47.74368,-22.12609,-13.84262,1002.178
1.734095097,-11.27931,-33.3149,64.23131,-1.069623,-0.1020719,-0.0259317,47.74368,-22.12609,-13.84262,1002.178
1.739150524,-13.54732,-34.89042,61.23079,-1.068145,-0.08830419,-0.06628983,47.74368,-22.12609,-13.84262,1002.178
1.744205475,-14.83457,-35.98116,57.9241,-1.070379,-0.0635376,-0.06563929,47.74368,-22.12609,-13.84262,1002.178
1.749260902,-17.40907,-36.76892,53.94382,-1.064653,-0.0398596,-0.04737777,47.74368,-22.12609,-13.84262,1002.178
1.751789093,-19.37059,-36.52654,51.73936,-1.065658,-0.03077874,-0.03756242,46.69518,-25.85942,-16.00876,1002.178
1.756844044,-25.25516,-35.254,47.75908,-1.055171,-0.0001235061,-0.02443488,46.69518,-25.85942,-16.00876,1002.178
1.761899471,-31.87529,-33.86027,43.84004,-1.04133,0.03213911,-0.01704323,46.69518,-25.85942,-16.00876,1002.178
1.766954899,-37.69856,-32.04237,39.98223,-1.014517,0.07311962,-0.02343651,46.69518,-25.85942,-16.00876,1002.178
1.772009849,-42.17328,-30.10327,35.87949,-0.9844694,0.1016856,-0.009110708,46.69518,-25.85942,-16.00876,1002.178
1.777065277,-45.91243,-27.25521,32.02168,-0.9630572,0.1169569,0.004958844,46.69518,-25.85942,-16.00876,1002.178
1.782120705,-49.2225,-24.46776,28.53129,-0.9382451,0.1242291,0.004909114,46.69518,-25.85942,-16.00876,1002.178
1.787176609,-52.53257,-21.98328,25.65324,-0.9086673,0.1360893,-0.003207877,46.69518,-25.85942,-16.00876,1002.178
1.792232037,-55.41356,-19.6806,23.08137,-0.8921854,0.1399368,-0.01236222,46.69518,-25.85942,-16.00876,1002.178
1.797287464,-56.8847,-17.19613,20.63197,-0.8759406,0.1318844,-0.006975383,46.69518,-25.85942,-16.00876,1002.178
1.802342415,-57.92676,-14.46927,18.54998,-0.8611346,0.1251859,0.003725749,45.61614,-28.1119,-17.79248,1002.178
1.807397842,-58.17195,-12.40898,16.46799,-0.8622582,0.1031042,0.01466526,45.61614,-28.1119,-17.79248,1002.178
1.812453270,-57.98806,-10.59107,14.69217,-0.8655543,0.09805712,0.02270696,45.61614,-28.1119,-17.79248,1002.178
1.817509174,-56.8847,-9.560926,13.58994,-0.857247,0.1015241,0.02894034,45.61614,-28.1119,-17.79248,1002.178
1.822564602,-56.39432,-8.894361,12.91635,-0.8688364,0.1048859,0.05020049,45.61614,-28.1119,-17.79248,1002.178
1.827619553,-56.27172,-8.227795,12.304,-0.8740416,0.1078158,0.07569809,45.61614,-28.1119,-17.79248,1002.178
1.832674980,-56.946,-7.74302,11.93659,-0.8919532,0.1143507,0.1047587,45.61614,-28.1119,-17.79248,1002.178
1.837730408,-58.72363,-7.621826,11.32424,-0.9277009,0.1400965,0.1287311,45.61614,-28.1119,-17.79248,1002.178
1.842785358,-60.31736,-7.500632,11.56918,-0.902308,0.120584,0.1634229,45.61614,-28.1119,-17.79248,1002.178
1.847840786,-63.99522,-7.864213,11.87536,-0.8949344,0.09542798,0.1952692,45.61614,-28.1119,-17.79248,1002.183
1.852896690,-69.75719,-7.258245,12.18153,-0.8997561,0.0790802,0.2413383,44.8731,-28.87449,-19.58164,1002.183
1.857952118,-76.68382,-6.652276,11.87536,-0.9029119,0.07710551,0.2719582,44.8731,-28.87449,-19.58164,1002.183
1.863007545,-84.22342,-5.925114,12.05906,-0.911274,0.0647331,0.3081081,44.8731,-28.87449,-19.58164,1002.183
1.868062973,-91.82432,-6.288695,11.75289,-0.9081404,0.06869137,0.3402556,44.8731,-28.87449,-19.58164,1002.183
1.873117924,-99.05743,-6.652276,11.38548,-0.9158745,0.06888395,0.3503874,44.8731,-28.87449,-19.58164,1002.183
1.878173351,-104.8194,-7.74302,10.8956,-0.9368052,0.08172192,0.377243,44.8731,-28.87449,-19.58164,1002.183
1.883228779,-109.5393,-9.257941,9.854601,-0.984046,0.113469,0.3761026,44.8731,-28.87449,-19.58164,1002.183
1.888284683,-112.5429,-11.19704,9.73213,-0.8988645,0.0879006,0.3689025,44.8731,-28.87449,-19.58164,1002.185
1.893340111,-115.1174,-12.71196,10.58942,-0.8400929,0.07432359,0.3732682,44.8731,-28.87449,-19.58164,1002.185
1.898395061,-114.6883,-11.37883,11.26301,-0.8198482,0.09231218,0.3668314,45.22052,-28.86855,-21.76576,1002.185
1.903450489,-111.9299,-9.076151,10.40572,-0.8033547,0.1066118,0.374699,45.22052,-28.86855,-21.76576,1002.185
1.908505917,-108.4973,-6.531082,9.915835,-0.8092757,0.1170961,0.3822027,45.22052,-28.86855,-21.76576,1002.185
1.913560867,-104.3903,-3.743626,9.303485,-0.8183166,0.1397831,0.3833435,45.22052,-28.86855,-21.76576,1002.185
1.918616295,-99.36391,-1.683332,8.50743,-0.8235809,0.1675403,0.3754811,45.22052,-28.86855,-21.76576,1002.185
1.923672199,-93.41805,-0.2896038,7.833845,-0.8323263,0.1953539,0.3595143,45.22052,-28.86855,-21.76576,1002.185
1.928727627,-86.30753,0.8617369,7.099024,-0.833108,0.220169,0.3587161,45.22052,-28.86855,-21.76576,1002.185
1.933783054,-79.01312,1.225318,6.364204,-0.8500114,0.2461431,0.3580997,45.22052,-28.86855,-21.76576,1002.185
1.938838482,-71.41222,1.225318,5.568149,-0.84952,0.2599521,0.3790324,45.22052,-28.86855,-21.76576,1002.185
1.943893433,-64.73079,0.2557681,4.955798,-0.8574148,0.2785334,0.3958569,45.22052,-28.86855,-21.76576,1002.185
1.948948860,-59.70439,-0.1078131,4.159743,-0.8566362,0.300817,0.4035972,44.83535,-29.25206,-23.9434,1002.185
1.954004288,-55.53615,0.0739775,2.751337,-0.8454682,0.3125567,0.413365,44.83535,-29.25206,-23.9434,1002.185
1.959060192,-53.14555,0.8617369,1.342931,-0.8577464,0.2991813,0.4466539,44.83535,-29.25206,-23.9434,1002.185
1.964119434,-51.55181,2.74024,-0.3716494,-0.8515425,0.2910287,0.4789433,44.83535,-29.25206,-23.9434,1002.185
1.969170570,-50.26456,4.497549,-2.57611,-0.854967,0.2890763,0.475096,44.83535,-29.25206,-23.9434,1002.185
1.974225998,-48.05785,5.709486,-4.596867,-0.8668869,0.2602402,0.4687308,44.83535,-29.25206,-23.9434,1002.183
1.976754189,-47.19968,6.61844,-5.576627,-0.8652151,0.249885,0.4799419,44.83535,-29.25206,-23.9434,1002.183
1.981809139,-46.28022,7.406199,-7.781088,-0.8775366,0.238018,0.5099183,44.83535,-29.25206,-23.9434,1002.183
1.986864567,-47.13839,8.37575,-9.618139,-0.8911406,0.212457,0.5429101,44.83535,-29.25206,-23.9434,1002.183
1.991919994,-50.63235,8.799928,-11.51643,-0.9167286,0.2052716,0.568822,44.83535,-29.25206,-23.9434,1002.183
1.996975422,-55.29096,9.163508,-12.8636,-0.9421628,0.2163297,0.5789185,44.42919,-28.15317,-24.84048,1002.183
2.002030373,-60.93034,8.496943,-14.14953,-0.9679767,0.2162284,0.5863413,44.42919,-28.15317,-24.84048,1002.183
2.007085800,-67.42789,6.497246,-14.76188,-0.9891115,0.2289685,0.5868649,44.42919,-28.15317,-24.84048,1002.183
2.012141704,-73.43504,4.67934,-14.51694,-0.9936843,0.2706013,0.563071,44.42919,-28.15317,-24.84048,1002.183
2.017197132,-78.21626,3.043224,-14.02706,-1.004729,0.2919201,0.5555784,44.42919,-28.15317,-24.84048,1002.183
2.022252559,-82.26189,2.619046,-12.8636,-0.9952299,0.3320619,0.5186873,44.42919,-28.15317,-24.84048,1002.183
2.027307510,-85.57196,2.013077,-11.14901,-0.986097,0.3657804,0.4878601,44.42919,-28.15317,-24.84048,1002.183
2.032362938,-88.14646,2.55845,-8.883319,-0.976074,0.4096737,0.4611132,44.42919,-28.15317,-24.84048,1002.183
2.037418365,-91.76302,3.467402,-6.188977,-0.955644,0.4487036,0.4470706,44.42919,-28.15317,-24.84048,1002.183
2.042473316,-95.31828,5.164115,-3.188461,-0.9299457,0.4903995,0.4239496,44.42919,-28.15317,-24.84048,1002.183
2.047529697,-99.05743,6.133665,0.301936,-0.910154,0.5301753,0.3917394,45.15701,-27.76449,-25.29604,1002.183
2.052584648,-103.7773,7.769781,4.465918,-0.8775136,0.5698906,0.3795139,45.15701,-27.76449,-25.29604,1002.183
2.057640075,-109.1715,9.163508,8.323725,-0.8578997,0.5886106,0.3558665,45.15701,-27.76449,-25.29604,1002.183
2.062695503,-114.6883,10.49664,11.93659,-0.8364276,0.6208714,0.3402058,45.15701,-27.76449,-25.29604,1002.183
2.067750931,-120.6342,12.25395,15.54946,-0.8195556,0.6225295,0.3151933,45.15701,-27.76449,-25.29604,1002.183
2.072805881,-125.7832,14.85962,18.67245,-0.794919,0.6196533,0.2775446,45.15701,-27.76449,-25.29604,1002.183
2.077861309,-129.6449,18.19244,20.93814,-0.7663836,0.6173363,0.2398731,45.15701,-27.76449,-25.29604,1002.183
2.082917213,-132.7098,23.10079,22.22408,-0.7487993,0.5924417,0.2668419,45.15701,-27.76449,-25.29604,1002.183
2.087972641,-136.3263,29.70585,22.04037,-0.7504264,0.5546692,0.2524923,45.15701,-27.76449,-25.29604,1002.183
2.093028068,-138.2879,34.91718,21.24432,-0.7480691,0.4915512,0.1479339,45.15701,-27.76449,-25.29604,1002.183
2.098083019,-134.3035,37.40165,21.12185,-0.7446504,0.4478117,0.08311573,45.08982,-25.91813,-27.54451,1002.188
2.103138447,-126.0284,39.58314,21.18308,-0.7693174,0.4055176,0.04971879,45.08982,-25.91813,-27.54451,1002.188
2.108193874,-114.627,40.12851,21.24432,-0.8252429,0.3284099,-0.03740907,45.08982,-25.91813,-27.54451,1002.188
2.113248825,-100.406,39.34076,21.42802,-0.9038879,0.2167086,-0.08450728,45.08982,-25.91813,-27.54451,1002.188
2.118305206,-85.81715,38.12881,21.55049,-1.006068,0.07390481,-0.06562673,45.08982,-25.91813,-27.54451,1002.188
2.123360157,-75.21268,36.97747,21.06061,-1.161395,-0.04522201,-0.003511734,45.08982,-25.91813,-27.54451,1002.188
2.128415584,-70.98314,35.88673,21.7342,-1.402109,-0.1122158,0.07892799,45.08982,-25.91813,-27.54451,1002.188
2.133471012,-73.98672,33.58405,25.46953,-1.710294,-0.09172551,0.2154555,45.08982,-25.91813,-27.54451,1002.188
2.138526439,-83.61044,28.85749,32.32786,-2.002333,-0.002495637,0.3961864,45.08982,-25.91813,-27.54451,1002.183
2.143581390,-98.19926,23.10079,40.83953,-2.197824,0.1690653,0.5599044,44.71442,-25.9286,-27.99064,1002.183
2.148636818,-112.5429,18.43483,47.33044,-2.199701,0.3772557,0.6284087,44.71442,-25.9286,-27.99064,1002.183
2.153692722,-122.5344,15.76857,50.45343,-1.994656,0.5425729,0.499972,44.71442,-25.9286,-27.99064,1002.183
2.158748150,-119.4082,17.34409,50.08601,-1.675424,0.5696769,0.2855554,44.71442,-25.9286,-27.99064,1002.183
2.163803577,-103.1644,20.79811,48.73885,-1.375847,0.3768716,-0.02139751,44.71442,-25.9286,-27.99064,1002.183
2.168858528,-78.82923,20.73751,47.0855,-1.087396,0.03291568,-0.2894776,44.71442,-25.9286,-27.99064,1002.183
2.173913955,-53.45203,20.67692,43.53387,-0.8155274,-0.3198643,-0.443203,44.71442,-25.9286,-27.99064,1002.183
2.178969383,-32.54956,21.76766,37.71654,-0.5928302,-0.6152268,-0.4944662,44.71442,-25.9286,-27.99064,1002.184
2.184024334,-18.63502,24.13094,29.87846,-0.4216639,-0.7948875,-0.4714462,44.71442,-25.9286,-27.99064,1002.184
2.189080715,-9.0113,28.85749,20.87691,-0.3419807,-0.8663793,-0.3753931,44.71442,-25.9286,-27.99064,1002.184
2.194135666,-6.191613,37.34106,11.0793,-0.3614227,-0.8382492,-0.1973556,44.33492,-25.93974,-28.82169,1002.184
2.199191093,-12.87305,46.97596,2.383927,-0.4631695,-0.7544466,-0.0367541,44.33492,-25.93974,-28.82169,1002.184
2.204246521,-25.99073,56.18668,-2.821051,-0.6405829,-0.6197587,0.01143381,44.33492,-25.93974,-28.82169,1002.184
2.206774235,-32.91735,60.42847,-4.596867,-0.7456003,-0.5344999,0.005018265,44.33492,-25.93974,-28.82169,1002.184
2.211829662,-44.87038,67.33651,-6.862563,-0.9166078,-0.34327,-0.04308312,44.33492,-25.93974,-28.82169,1002.184
2.216885090,-49.65158,74.24455,-9.556904,-1.01195,-0.1659045,-0.111881,44.33492,-25.93974,-28.82169,1002.182
2.221940517,-46.09633,79.09231,-12.43495,-1.121215,0.007439994,-0.1567118,44.33492,-25.93974,-28.82169,1002.182
2.226995468,-37.26948,79.33469,-14.88435,-1.239014,0.154923,-0.2073855,44.33492,-25.93974,-28.82169,1002.182
2.232050896,-29.91377,76.00186,-17.08881,-1.352782,0.3041485,-0.2393816,44.33492,-25.93974,-28.82169,1002.182
2.237106323,-29.0556,71.09351,-19.66068,-1.408792,0.3975154,-0.271907,44.33492,-25.93974,-28.82169,1002.182
2.242162227,-34.87887,68.06367,-23.70219,-1.405153,0.4651309,-0.3310247,43.61119,-26.32775,-27.98122,1002.182
2.247217655,-42.78626,64.97323,-28.41729,-1.365061,0.5051763,-0.3887939,43.61119,-26.32775,-27.98122,1002.182
2.252272606,-51.00013,59.7619,-33.37733,-1.295687,0.4996653,-0.3900685,43.61119,-26.32775,-27.98122,1002.182
2.257328033,-59.2753,52.79326,-35.9492,-1.218917,0.4575695,-0.3109547,43.61119,-26.32775,-27.98122,1002.182
2.262383461,-67.85696,44.91566,-35.70426,-1.156123,0.4125029,-0.2131129,43.61119,-26.32775,-27.98122,1002.18
2.267438888,-76.62252,38.97717,-34.05091,-1.105501,0.3443031,-0.1454267,43.61119,-26.32775,-27.98122,1002.18
2.272493839,-85.93975,36.18972,-32.03016,-1.042274,0.276495,-0.08838223,43.61119,-26.32775,-27.98122,1002.18
2.277549743,-94.7666,36.18972,-30.37681,-0.9841148,0.2070392,-0.05766319,43.61119,-26.32775,-27.98122,1002.18
2.282605171,-100.1608,36.79568,-28.84594,-0.9456938,0.1376224,-0.05404552,43.61119,-26.32775,-27.98122,1002.18
2.287660599,-100.8351,37.58344,-27.62124,-0.919732,0.08512012,-0.05801903,43.61119,-26.32775,-27.98122,1002.18
2.292716026,-98.13796,38.4924,-26.45777,-0.8727456,0.06098592,-0.07822668,45.08206,-25.17649,-26.64762,1002.18
2.297770977,-92.80508,40.4921,-24.98813,-0.8415549,0.04308097,-0.1115318,45.08206,-25.17649,-26.64762,1002.18
2.302826404,-84.89769,43.46134,-23.33478,-0.8433855,0.03659222,-0.1681723,45.08206,-25.17649,-26.64762,1002.18
2.307881832,-75.21268,46.85477,-22.17132,-0.8536975,0.01509561,-0.2078789,45.08206,-25.17649,-26.64762,1002.18
2.312937736,-64.36301,49.76342,-21.25279,-0.89271,-0.002349397,-0.2285399,45.08206,-25.17649,-26.64762,1002.18
2.317993164,-52.96165,51.82371,-20.27303,-0.9428903,-0.01582424,-0.2355893,45.08206,-25.17649,-26.64762,1002.18
2.323048115,-41.6829,52.49028,-19.23204,-0.9752931,-0.007021332,-0.2460706,45.08206,-25.17649,-26.64762,1002.18
2.328103542,-31.6301,52.73266,-18.61969,-0.9758402,0.008313242,-0.2308344,45.08206,-25.17649,-26.64762,1002.18
2.333158970,-22.92585,53.70221,-17.9461,-0.9928415,0.05208386,-0.2175924,45.08206,-25.17649,-26.64762,1002.18
2.338214397,-15.93793,54.61117,-17.7624,-1.014961,0.08196063,-0.1926863,45.08206,-25.17649,-26.64762,1002.18
2.343269348,-10.60504,54.67176,-18.00734,-1.043647,0.08503249,-0.173187,46.53084,-23.2859,-25.76434,1002.18
2.348325252,-6.069017,54.0658,-18.55845,-1.051633,0.07858992,-0.142635,46.53084,-23.2859,-25.76434,1002.18
2.353380680,-2.329866,52.91446,-19.72192,-1.06623,0.06399158,-0.09547143,46.53084,-23.2859,-25.76434,1002.18
2.358436107,-0.8587245,51.9449,-21.31403,-1.076961,0.04763362,-0.05604917,46.53084,-23.2859,-25.76434,1002.18
2.363491535,0.7350122,50.79356,-22.90614,-1.077396,0.02328365,-0.0226724,46.53084,-23.2859,-25.76434,1002.18
2.368546486,2.328749,50.0664,-24.86566,-1.075063,0.005952261,0.0003240071,46.53084,-23.2859,-25.76434,1002.18
2.373601913,3.248212,49.46043,-27.00889,-1.078488,-0.006435208,0.04360813,46.53084,-23.2859,-25.76434,1002.18
2.378657341,3.493403,48.85446,-29.33582,-1.070001,-0.01282199,0.05820695,46.53084,-23.2859,-25.76434,1002.18
2.383713245,2.880427,48.85446,-31.72398,-1.064757,-0.01201671,0.04333648,46.53084,-23.2859,-25.76434,1002.18
2.388768673,2.819129,49.15745,-34.23462,-1.056472,-0.011841,0.04182637,46.51531,-21.80262,-23.97057,1002.18
2.393823624,1.960963,49.58163,-37.1739,-1.052378,-0.0002557032,0.0205382,46.51531,-21.80262,-23.97057,1002.18
2.398879051,0.7350122,49.52103,-40.05195,-1.070808,0.01676163,-0.00135652,46.51531,-21.80262,-23.97057,1002.18
2.403934479,-1.594295,49.27864,-42.99123,-1.067129,0.03200953,-0.007706334,46.51531,-21.80262,-23.97057,1002.18
2.408992290,-5.272149,48.61208,-45.86927,-1.054557,0.04484103,-0.004147793,46.51531,-21.80262,-23.97057,1002.18
2.414044857,-9.992062,47.64252,-48.74732,-1.031934,0.06632177,-0.0133908,46.51531,-21.80262,-23.97057,1002.18
2.419100761,-14.65068,47.33954,-50.95178,-1.013091,0.07750269,-0.02190233,46.51531,-21.80262,-23.97057,1002.18
2.424156189,-18.94151,46.49118,-52.66636,-0.9991086,0.09569699,-0.01726333,46.51531,-21.80262,-23.97057,1002.18
2.429211616,-23.17104,46.61238,-54.74836,-0.9996822,0.09632257,-0.02729584,46.51531,-21.80262,-23.97057,1002.18
2.434267044,-26.665,46.36999,-56.64664,-0.9915051,0.1033634,-0.03246048,46.51531,-21.80262,-23.97057,1002.18
2.436794758,-28.38133,46.36999,-57.4427,-0.9856682,0.1025563,-0.03636619,46.90048,-21.41911,-21.79293,1002.18
2.441850185,-31.81399,46.67298,-58.42245,-0.9807917,0.09741765,-0.0446817,46.90048,-21.41911,-21.79293,1002.18
2.446905613,-35.43055,47.15775,-59.27975,-0.9788001,0.09595264,-0.04186524,46.90048,-21.41911,-21.79293,1002.18
2.451960564,-40.02787,47.94551,-58.6674,-0.944248,0.09963601,-0.05023706,46.90048,-21.41911,-21.79293,1002.18
2.457015991,-43.21534,49.52103,-56.52417,-0.8971549,0.07530404,-0.05704565,46.90048,-21.41911,-21.79293,1002.18
2.462071419,-46.52541,51.21774,-55.36071,-0.9918102,0.102977,-0.07220396,46.90048,-21.41911,-21.79293,1002.18
2.467126369,-49.95807,52.12669,-54.74836,-0.9866068,0.09528969,-0.1050038,46.90048,-21.41911,-21.79293,1002.179
2.472182751,-52.83906,52.49028,-53.82983,-0.9805405,0.07596666,-0.1069884,46.90048,-21.41911,-21.79293,1002.179
2.477237701,-55.90394,53.03565,-52.60513,-0.9967239,0.05014232,-0.09217165,46.90048,-21.41911,-21.79293,1002.179
2.482293129,-58.29454,53.21744,-51.25796,-1.012015,0.0297282,-0.08009832,46.90048,-21.41911,-21.79293,1002.179
2.487348556,-60.43996,53.09624,-49.97202,-1.017111,0.01722269,-0.0636116,48.70256,-18.77872,-20.91384,1002.179
2.492403984,-60.80774,52.91446,-48.62485,-0.9982553,-0.01204875,-0.06788503,48.70256,-18.77872,-20.91384,1002.179
2.497458935,-58.35584,52.91446,-48.0125,-0.9995237,-0.03386208,-0.07512996,48.70256,-18.77872,-20.91384,1002.179
2.502514839,-54.4328,52.67207,-46.91027,-1.027989,-0.07309299,-0.09022051,48.70256,-18.77872,-20.91384,1002.179
2.507570267,-49.09991,50.24819,-46.05298,-1.041412,-0.05241198,-0.09052554,48.70256,-18.77872,-20.91384,1002.18
2.512625694,-45.42205,48.61208,-45.25692,-1.020033,-0.06131903,-0.05408998,48.70256,-18.77872,-20.91384,1002.18
2.517681122,-41.92809,48.00611,-44.46087,-1.016618,-0.0588732,-0.05070883,48.70256,-18.77872,-20.91384,1002.18
2.522736072,-38.49543,46.91536,-43.41987,-1.005818,-0.05402889,-0.03584644,48.70256,-18.77872,-20.91384,1002.18
2.527793407,-35.98223,46.00641,-42.37888,-1.001619,-0.04454431,-0.04665643,48.70256,-18.77872,-20.91384,1002.18
2.532846928,-32.85605,45.15805,-41.76653,-0.9956692,-0.02417574,-0.06726018,48.70256,-18.77872,-20.91384,1002.18
2.537901878,-29.2395,44.1885,-41.15418,-0.9871514,-0.003522612,-0.07112458,49.05066,-16.60588,-18.29016,1002.18
2.542958259,-25.68424,43.40075,-40.23565,-0.9747513,0.009626754,-0.08910026,49.05066,-16.60588,-18.29016,1002.18
2.548013210,-22.06768,42.31,-39.25589,-0.9766109,0.01227529,-0.0732165,49.05066,-16.60588,-18.29016,1002.179
2.553068638,-18.94151,41.03747,-38.33737,-0.9800122,0.01123194,-0.07273211,49.05066,-16.60588,-18.29016,1002.179
2.558124065,-16.12182,40.24971,-37.60255,-0.9783647,0.002349832,-0.06244084,49.05066,-16.60588,-18.29016,1002.179
2.563179493,-13.79251,39.28016,-36.86773,-0.981878,0.0177005,-0.05196367,49.05066,-16.60588,-18.29016,1002.179
2.568234444,-11.34061,39.15896,-36.37785,-0.9760674,0.01789433,-0.05775872,49.05066,-16.60588,-18.29016,1002.179
2.573290348,-7.846647,39.21956,-36.1329,-0.9829046,0.02015637,-0.05476408,49.05066,-16.60588,-18.29016,1002.179
2.578345776,-3.9849,38.85598,-35.64302,-0.9927033,0.02004523,-0.05946181,49.05066,-16.60588,-18.29016,1002.179
2.583401203,-0.4909391,38.25001,-35.27562,-1.017954,0.05262404,-0.05648014,49.05066,-16.60588,-18.29016,1002.179
2.588456631,1.28669,37.88643,-35.21438,-1.000797,0.06851079,-0.02368334,49.39322,-14.37203,-16.0515,1002.18
2.593511581,2.696534,37.52285,-35.09191,-1.013502,0.07497011,-0.01573902,49.39322,-14.37203,-16.0515,1002.18
2.598567009,3.125617,37.03807,-35.03067,-1.016091,0.08805563,-0.01538198,49.39322,-14.37203,-16.0515,1002.18
2.603622436,3.125617,35.94733,-34.41832,-1.023055,0.09912111,-0.01551368,49.39322,-14.37203,-16.0515,1002.18
2.608678341,3.677295,34.85659,-34.11215,-1.019116,0.09484508,-0.0175746,49.39322,-14.37203,-16.0515,1002.18
2.613733768,4.903247,33.76584,-33.37733,-1.018203,0.09355259,-0.0276699,49.39322,-14.37203,-16.0515,1002.18
2.618788719,6.006603,32.79629,-32.64251,-1.015125,0.07714245,-0.03290359,49.39322,-14.37203,-16.0515,1002.18
2.623844147,6.987364,31.70555,-31.96892,-1.024868,0.06788284,-0.04405814,49.39322,-14.37203,-16.0515,1002.18
2.628899574,8.5811,30.91779,-32.09139,-1.030219,0.05346837,-0.06304529,49.39322,-14.37203,-16.0515,1002.18
2.633955002,10.05224,29.70585,-32.76498,-1.030801,0.05220513,-0.07695574,49.3588,-12.52036,-15.22064,1002.18
2.639009952,10.91041,29.40287,-33.98968,-1.035523,0.07844178,-0.08007436,49.3588,-12.52036,-15.22064,1002.18
2.644065857,11.82987,29.16048,-35.21438,-1.021827,0.09859658,-0.1093743,49.3588,-12.52036,-15.22064,1002.18
2.649121284,12.99453,29.16048,-36.50032,-1.020805,0.1237235,-0.128853,49.3588,-12.52036,-15.22064,1002.18
2.654176712,14.09788,29.46346,-38.15366,-1.026892,0.1297541,-0.1492286,49.3588,-12.52036,-15.22064,1002.18
2.659232140,14.15918,29.88764,-39.6233,-1.031026,0.1439122,-0.1574473,49.3588,-12.52036,-15.22064,1002.18
2.661759853,14.34307,30.37242,-40.54183,-1.035937,0.14626,-0.15782,49.3588,-12.52036,-15.22064,1002.18
2.666815281,13.42361,31.28137,-42.62382,-1.054334,0.1289778,-0.1638303,49.3588,-12.52036,-15.22064,1002.18
2.671870708,12.50414,31.64495,-44.39964,-1.088893,0.1176897,-0.1676205,49.3588,-12.52036,-15.22064,1002.185
2.676925659,12.19766,31.03898,-45.99174,-1.117992,0.0872884,-0.1882257,49.3588,-12.52036,-15.22064,1002.185
2.681981087,12.32025,30.6148,-47.76756,-1.143751,0.06042573,-0.2135601,49.3588,-12.52036,-15.22064,1002.185
2.687036514,13.6688,29.94824,-50.2782,-1.179713,0.03947552,-0.2238064,49.66467,-11.76986,-13.87713,1002.185
2.692092419,15.26254,29.40287,-53.03378,-1.208884,0.02396691,-0.2315849,49.66467,-11.76986,-13.87713,1002.185
2.697147846,15.44643,28.7363,-55.97306,-1.246119,0.008824371,-0.2086376,49.66467,-11.76986,-13.87713,1002.185
2.702202797,14.34307,28.55451,-58.78987,-1.291839,0.01006263,-0.1851937,49.66467,-11.76986,-13.87713,1002.185
2.707258224,12.68804,27.70615,-61.05556,-1.34779,0.03674743,-0.1839866,49.66467,-11.76986,-13.87713,1002.185
2.712313652,11.52338,26.13063,-62.83138,-1.395144,0.07060933,-0.1965623,49.66467,-11.76986,-13.87713,1002.183
2.717369080,10.72652,23.82795,-63.68867,-1.409603,0.1070951,-0.1811357,49.66467,-11.76986,-13.87713,1002.183
2.722424030,9.255374,21.10109,-63.99484,-1.394972,0.1269048,-0.1534816,49.66467,-11.76986,-13.87713,1002.183
2.727479458,7.171257,18.67722,-64.17855,-1.357069,0.1645739,-0.1198486,49.66467,-11.76986,-13.87713,1002.183
2.732535362,5.945305,16.73812,-64.17855,-1.326484,0.1878205,-0.1070993,49.99289,-9.53833,-12.98568,1002.183
2.737590790,7.293852,15.102,-65.58695,-1.337155,0.1965429,-0.08523288,49.99289,-9.53833,-12.98568,1002.183
2.742646217,5.209735,14.25365,-64.54596,-1.202986,0.2595393,-0.06431376,49.99289,-9.53833,-12.98568,1002.183
2.747701168,5.393627,12.43574,-62.70891,-1.227269,0.2850108,-0.07301195,49.99289,-9.53833,-12.98568,1002.183
2.752756596,4.780652,10.31485,-60.93309,-1.240636,0.2965433,-0.0797738,49.99289,-9.53833,-12.98568,1002.183
2.757812023,3.248212,7.406199,-59.21851,-1.257825,0.2997567,-0.08814722,49.99289,-9.53833,-12.98568,1002.183
2.762867451,0.7350122,4.194565,-57.32022,-1.282359,0.300501,-0.1032165,49.99289,-9.53833,-12.98568,1002.183
2.767923355,-1.287807,1.467706,-55.11576,-1.290572,0.2844811,-0.1159936,49.99289,-9.53833,-12.98568,1002.183
2.772978306,-3.862305,-0.7137819,-52.9113,-1.295531,0.2883444,-0.1201573,49.99289,-9.53833,-12.98568,1002.183
2.778033733,-5.762529,-2.774076,-50.64561,-1.307888,0.2884068,-0.1396678,49.99289,-9.53833,-12.98568,1002.183
2.783089161,-8.52092,-5.561532,-48.25744,-1.321876,0.3139845,-0.1427155,50.30769,-6.937529,-12.54392,1002.183
2.788144588,-10.78893,-8.409585,-45.37939,-1.331375,0.3261325,-0.1533284,50.30769,-6.937529,-12.54392,1002.183
2.793199539,-13.79251,-11.25764,-41.33788,-1.356682,0.3364783,-0.127931,50.30769,-6.937529,-12.54392,1002.181
2.798254967,-18.75761,-15.49942,-36.74525,-1.357095,0.3838987,-0.1104443,50.30769,-6.937529,-12.54392,1002.181
2.803310871,-21.33211,-19.37762,-29.64199,-1.380892,0.3366221,-0.1023246,50.30769,-6.937529,-12.54392,1002.181
2.808366299,-23.23234,-24.16477,-22.41626,-1.383853,0.3361901,-0.04437837,50.30769,-6.937529,-12.54392,1002.181
2.813421726,-25.86813,-29.01252,-14.39447,-1.381618,0.3428434,0.001729919,50.30769,-6.937529,-12.54392,1002.181
2.818476677,-26.7876,-34.40564,-5.699097,-1.368987,0.3379872,0.04936245,50.30769,-6.937529,-12.54392,1002.181
2.823532104,-26.54241,-39.61697,3.853568,-1.362792,0.3469895,0.1060256,50.30769,-6.937529,-12.54392,1002.181
2.828587532,-26.7876,-44.52532,12.91635,-1.336188,0.3474934,0.1378634,50.30769,-6.937529,-12.54392,1002.181
2.833642960,-26.6037,-48.34293,22.10161,-1.295345,0.3428617,0.1727874,49.90242,-5.467044,-12.54348,1002.181
2.838698864,-25.00997,-50.46382,30.91945,-1.239151,0.3571075,0.2008647,49.90242,-5.467044,-12.54348,1002.179
2.843753815,-22.86455,-50.7668,39.61483,-1.172237,0.3749151,0.2318037,49.90242,-5.467044,-12.54348,1002.179
2.848809242,-20.22876,-50.28202,46.71809,-1.089905,0.4019513,0.2503839,49.90242,-5.467044,-12.54348,1002.179
2.853864670,-17.65426,-49.25188,53.209,-0.9993865,0.4345834,0.2628051,49.90242,-5.467044,-12.54348,1002.179
2.858920097,-15.20235,-48.76711,59.63868,-0.9226283,0.4566644,0.2477993,49.90242,-5.467044,-12.54348,1002.179
2.863975048,-12.87305,-48.64591,66.55824,-0.8285753,0.4795811,0.198181,49.90242,-5.467044,-12.54348,1002.179
2.869030476,-10.85023,-47.91875,74.27385,-0.764801,0.4919757,0.1313465,49.90242,-5.467044,-12.54348,1002.179
2.874086380,-9.808169,-45.31308,81.98946,-0.7225549,0.5055,0.05995654,49.90242,-5.467044,-12.54348,1002.179
2.879141808,-9.501681,-41.43488,90.6236,-0.7394488,0.4857539,-0.007411093,49.52638,-3.628765,-14.78951,1002.177
2.884197235,-9.624276,-36.52654,98.76786,-0.8052566,0.453879,-0.1052648,49.52638,-3.628765,-14.78951,1002.177
2.889252186,-12.99564,-32.58774,106.2998,-0.892705,0.4029097,-0.1895154,49.52638,-3.628765,-14.78951,1002.177
2.891780376,-15.75403,-31.13341,109.9739,-0.970091,0.369177,-0.2097488,49.52638,-3.628765,-14.78951,1002.177
2.896835804,-21.516,-29.3761,117.1996,-1.09441,0.2900108,-0.2436196,49.52638,-3.628765,-14.78951,1002.177
2.901894093,-29.72988,-28.70954,123.6293,-1.235624,0.1821325,-0.2330575,49.52638,-3.628765,-14.78951,1002.177
2.906946182,-39.2923,-29.80028,129.5078,-1.364091,0.0877122,-0.1954637,49.52638,-3.628765,-14.78951,1002.177
2.912001610,-47.44487,-31.92117,134.2842,-1.455034,0.03023667,-0.174042,49.52638,-3.628765,-14.78951,1002.177
2.917057037,-55.29096,-33.3149,137.1622,-1.437193,0.01910982,-0.1563008,49.52638,-3.628765,-14.78951,1002.176
2.922112942,-63.13705,-34.52684,138.8156,-1.469633,-0.004828961,-0.1575601,49.52638,-3.628765,-14.78951,1002.176
2.927167892,-71.35093,-37.01131,139.8566,-1.51098,-0.0191835,-0.1599278,49.52638,-3.628765,-14.78951,1002.176
2.932223320,-79.07442,-40.22294,140.0403,-1.562736,-0.02057675,-0.163304,50.26448,-7.315978,-17.4189,1002.176
2.937278748,-86.55273,-43.73756,138.938,-1.56871,-0.00999357,-0.1624998,50.26448,-7.315978,-17.4189,1002.176
2.942334175,-92.43729,-45.97965,137.0397,-1.552817,-0.01072882,-0.1913939,50.26448,-7.315978,-17.4189,1002.176
2.947392464,-95.07308,-46.828,135.6313,-1.48641,-0.01717515,-0.198888,50.26448,-7.315978,-17.4189,1002.176
2.952444553,-96.54423,-47.91875,133.7943,-1.569476,-0.02853062,-0.2256804,50.26448,-7.315978,-17.4189,1002.176
2.957500458,-95.01179,-49.07009,131.0387,-1.535502,-0.1121712,-0.1874331,50.26448,-7.315978,-17.4189,1002.176
2.962555885,-95.25698,-49.13068,128.0994,-1.427149,-0.163416,-0.1409269,50.26448,-7.315978,-17.4189,1002.176
2.967611313,-98.13796,-46.828,124.9765,-1.373029,-0.2384062,-0.1356842,50.26448,-7.315978,-17.4189,1002.176
2.972666264,-101.5093,-45.55547,122.9557,-1.370981,-0.2609237,-0.1568623,50.26448,-7.315978,-17.4189,1002.176
2.977721691,-103.5322,-45.31308,121.6085,-1.381955,-0.2697282,-0.2000701,49.99964,-13.25173,-20.48529,1002.176
2.982777119,-103.7773,-46.64621,120.6288,-1.427999,-0.2878847,-0.2470142,49.99964,-13.25173,-20.48529,1002.176
2.987832546,-101.3867,-49.00949,120.69,-1.462855,-0.3005247,-0.2910512,49.99964,-13.25173,-20.48529,1002.176
2.992888451,-96.29903,-52.46351,120.8125,-1.484057,-0.2933734,-0.3074254,49.99964,-13.25173,-20.48529,1002.176
2.997943401,-90.23058,-56.22052,120.8737,-1.443686,-0.2738004,-0.2972558,49.99964,-13.25173,-20.48529,1002.176
3.002998829,-86.55273,-59.43216,118.4243,-1.346594,-0.2648027,-0.2907636,49.99964,-13.25173,-20.48529,1002.174
3.008054256,-79.99388,-61.49245,120.2614,-1.380583,-0.2148594,-0.2556603,49.99964,-13.25173,-20.48529,1002.174
3.013109684,-73.12856,-62.4014,120.3226,-1.297038,-0.2020499,-0.2278781,49.99964,-13.25173,-20.48529,1002.174
3.018164634,-69.81849,-63.06797,120.6288,-1.282072,-0.1700446,-0.2018322,49.99964,-13.25173,-20.48529,1002.174
3.023220062,-67.67307,-62.88618,120.69,-1.270751,-0.1262544,-0.1874212,49.99964,-13.25173,-20.48529,1002.174
3.028275966,-67.18269,-62.34081,120.5675,-1.243486,-0.1056302,-0.1660896,48.64936,-17.7349,-23.61003,1002.174
3.033331394,-68.16345,-62.09842,120.0777,-1.210526,-0.07269635,-0.1473716,48.64936,-17.7349,-23.61003,1002.174
3.038386822,-70.55406,-62.462,119.3428,-1.204565,-0.04806379,-0.160207,48.64936,-17.7349,-23.61003,1002.174
3.043441772,-73.80283,-62.15901,118.1794,-1.122505,-0.02953041,-0.1265202,48.64936,-17.7349,-23.61003,1002.176
3.048497200,-75.76435,-60.4623,115.1176,-1.147413,-0.003813689,-0.1524414,48.64936,-17.7349,-23.61003,1002.176
3.053552627,-78.03236,-59.61395,112.9744,-1.127704,9.646872E-06,-0.1233266,48.64936,-17.7349,-23.61003,1002.176
3.058608055,-82.62968,-58.4626,111.321,-1.085634,0.006795751,-0.1020079,48.64936,-17.7349,-23.61003,1002.176
3.063663959,-89.24982,-57.19007,109.484,-1.049204,-0.006445643,-0.08258112,48.64936,-17.7349,-23.61003,1002.176
3.068718910,-94.88919,-56.7053,106.9734,-1.0465,-0.01454469,-0.1235066,48.64936,-17.7349,-23.61003,1002.176
3.073774338,-97.95407,-56.5235,104.7077,-1.018063,-0.0390172,-0.1440262,48.64936,-17.7349,-23.61003,1002.176
3.078829765,-100.3447,-57.19007,101.2785,-0.982635,-0.06841651,-0.1518108,47.61973,-22.88906,-27.12098,1002.176
3.083885193,-102.674,-56.76589,98.03304,-0.9690211,-0.09706955,-0.1387839,47.61973,-22.88906,-27.12098,1002.176
3.088940143,-104.329,-56.34171,95.09377,-0.9143398,-0.1389003,-0.1374914,47.61973,-22.88906,-27.12098,1002.176
3.093995571,-106.8422,-55.43276,91.78707,-0.8882235,-0.1660194,-0.1465663,47.61973,-22.88906,-27.12098,1002.176
3.099051475,-108.8037,-54.46321,88.97026,-0.8376416,-0.1642771,-0.1680653,47.61973,-22.88906,-27.12098,1002.176
3.104106903,-109.2328,-53.06948,84.92875,-0.7754741,-0.1511309,-0.189384,47.61973,-22.88906,-27.12098,1002.176
3.109162330,-109.4167,-52.28172,81.25465,-0.7469572,-0.1367513,-0.2046083,47.61973,-22.88906,-27.12098,1002.176
3.114217281,-109.1715,-51.19098,78.07043,-0.7349881,-0.1341903,-0.2309878,47.61973,-22.88906,-27.12098,1002.176
3.119272709,-107.9456,-49.97904,74.8862,-0.7509795,-0.1166482,-0.2524135,47.61973,-22.88906,-27.12098,1002.176
3.121800899,-106.9648,-49.07009,73.53903,-0.7233871,-0.147095,-0.2649381,47.61973,-22.88906,-27.12098,1002.176
3.126855850,-103.9612,-47.19159,70.53851,-0.6930373,-0.160508,-0.2741835,45.43546,-26.65537,-31.52366,1002.176
3.131911278,-100.5899,-44.82831,68.02788,-0.6542429,-0.1854667,-0.2818871,45.43546,-26.65537,-31.52366,1002.176
3.136966705,-97.70888,-41.85906,65.45601,-0.6048694,-0.18851,-0.2776436,45.43546,-26.65537,-31.52366,1002.176
3.142022133,-95.56347,-37.67788,62.88414,-0.5955747,-0.185046,-0.2699834,45.43546,-26.65537,-31.52366,1002.176
3.147077083,-93.29546,-33.86027,60.67968,-0.6014279,-0.1870651,-0.2723731,45.43546,-26.65537,-31.52366,1002.176
3.152132988,-91.08875,-29.61849,58.59768,-0.6001641,-0.161911,-0.2607345,45.43546,-26.65537,-31.52366,1002.176
3.157188415,-89.12722,-26.22507,56.27075,-0.5676448,-0.1904487,-0.2646396,45.43546,-26.65537,-31.52366,1002.176
3.162243843,-86.79791,-22.52866,54.25,-0.5838737,-0.1857581,-0.2729846,45.43546,-26.65537,-31.52366,1002.176
3.167299270,-82.87487,-19.43822,51.73936,-0.5619449,-0.1857648,-0.2779796,45.43546,-26.65537,-31.52366,1002.174
3.172354221,-78.58404,-16.04479,49.65737,-0.5594764,-0.1862481,-0.2751427,45.43546,-26.65537,-31.52366,1002.174
3.177409649,-74.29321,-13.49972,47.20797,-0.5618178,-0.1821921,-0.2563461,43.93273,-27.44035,-35.03907,1002.174
3.182465076,-70.43147,-10.83346,44.45239,-0.5642825,-0.1617208,-0.2289923,43.93273,-27.44035,-35.03907,1002.174
3.187520981,-66.63101,-7.561229,41.45188,-0.5831286,-0.1562332,-0.1961195,43.93273,-27.44035,-35.03907,1002.174
3.192576408,-63.19835,-4.167804,38.75753,-0.5882864,-0.1486307,-0.1575772,43.93273,-27.44035,-35.03907,1002.174
3.197631359,-61.78851,-1.13796,35.81825,-0.5782646,-0.1432204,-0.1163616,43.93273,-27.44035,-35.03907,1002.174
3.202686786,-60.93034,2.497853,33.43009,-0.5662876,-0.1396837,-0.07760596,43.93273,-27.44035,-35.03907,1002.174
3.207742214,-61.11423,6.436649,31.10316,-0.5529946,-0.1348929,-0.05606595,43.93273,-27.44035,-35.03907,1002.172
3.212797642,-61.60461,11.16321,28.16388,-0.5387403,-0.1081958,-0.06653354,43.93273,-27.44035,-35.03907,1002.172
3.217853546,-60.86904,15.1626,25.4083,-0.4991905,-0.1674419,-0.09091452,43.93273,-27.44035,-35.03907,1002.172
3.222908497,-60.19477,17.22289,21.30555,-0.5184611,-0.1754112,-0.06986973,43.56509,-28.19247,-36.38209,1002.172
3.227963924,-61.35942,18.91961,16.89663,-0.5452465,-0.2083501,-0.04795224,43.56509,-28.19247,-36.38209,1002.172
3.233019352,-62.83057,18.49543,11.56918,-0.5554507,-0.2271518,-0.007160806,43.56509,-28.19247,-36.38209,1002.172
3.238074779,-63.68873,19.1014,4.588388,-0.5901825,-0.2218946,0.05410282,43.56509,-28.19247,-36.38209,1002.172
3.243129730,-63.81133,21.22229,-2.821051,-0.6383821,-0.2096787,0.08886042,43.56509,-28.19247,-36.38209,1002.172
3.248185158,-61.78851,22.49482,-10.7816,-0.659798,-0.1692812,0.09439832,43.56509,-28.19247,-36.38209,1002.176
3.253241062,-56.39432,23.82795,-18.55845,-0.6912507,-0.1280393,0.1287778,43.56509,-28.19247,-36.38209,1002.176
3.258296490,-52.16479,24.43392,-25.66172,-0.7422248,-0.1080694,0.1948776,43.56509,-28.19247,-36.38209,1002.176
3.263355732,-51.49051,24.97929,-31.41781,-0.8020299,-0.06484945,0.2898983,43.56509,-28.19247,-36.38209,1002.176
3.268406868,-56.8847,24.55512,-35.21438,-0.8793452,0.007888135,0.3743446,43.56509,-28.19247,-36.38209,1002.176
3.273462295,-64.97598,22.07064,-36.37785,-0.9534026,0.07003347,0.4225844,42.8063,-27.84327,-37.21083,1002.176
3.278517723,-73.37375,17.70767,-35.58179,-0.9888594,0.1694303,0.4680547,42.8063,-27.84327,-37.21083,1002.176
3.283573150,-78.03236,12.79932,-34.05091,-1.061901,0.2562373,0.4953678,42.8063,-27.84327,-37.21083,1002.176
3.288629055,-77.41939,9.648284,-31.66275,-1.093363,0.373553,0.4536438,42.8063,-27.84327,-37.21083,1002.178
3.293684006,-70.06368,8.072765,-29.09088,-1.074565,0.4918188,0.4105115,42.8063,-27.84327,-37.21083,1002.178
3.298739433,-60.19477,8.193958,-25.29431,-1.059739,0.5921236,0.4574445,42.8063,-27.84327,-37.21083,1002.178
3.303794861,-51.8583,9.769478,-21.80391,-1.100495,0.6637175,0.5333774,42.8063,-27.84327,-37.21083,1002.178
3.308850288,-49.16121,10.79962,-18.37475,-1.147714,0.7135527,0.6246172,42.8063,-27.84327,-37.21083,1002.178
3.313905239,-52.34868,10.67843,-15.12929,-1.192737,0.7567838,0.7372124,42.8063,-27.84327,-37.21083,1002.178
3.318960666,-59.3979,10.13306,-12.49619,-1.277207,0.7791283,0.8309782,42.8063,-27.84327,-37.21083,1002.178
3.324016571,-67.1214,9.163508,-10.5979,-1.36208,0.8231683,0.9051915,43.89221,-26.70402,-37.22151,1002.178
3.329071998,-74.4771,9.587687,-9.434434,-1.418357,0.8795364,0.9713089,43.89221,-26.70402,-37.22151,1002.178
3.334127426,-78.58404,10.13306,-7.291208,-1.474089,0.9566777,0.9503374,43.89221,-26.70402,-37.22151,1002.178
3.339182377,-77.48068,9.224106,-3.249696,-1.528686,1.041121,0.8979428,43.89221,-26.70402,-37.22151,1002.178
3.344237804,-72.33169,6.376052,3.914803,-1.556316,1.105364,0.8304175,43.89221,-26.70402,-37.22151,1002.178
3.346769333,-68.34734,4.194565,8.262489,-1.556758,1.122845,0.799747,43.89221,-26.70402,-37.22151,1002.178
3.351820946,-59.2753,-1.501541,17.81516,-1.526525,1.12294,0.7329169,43.89221,-26.70402,-37.22151,1002.178
3.356876373,-49.2838,-8.106601,26.93917,-1.481145,1.059567,0.6988008,43.89221,-26.70402,-37.22151,1002.178
3.361931801,-40.88603,-13.62092,34.77726,-1.403898,0.9594196,0.6902592,43.89221,-26.70402,-37.22151,1002.178
3.366987228,-35.00147,-17.31733,39.67606,-1.29951,0.8725101,0.6760522,43.89221,-26.70402,-37.22151,1002.178
3.372042179,-30.52675,-17.49911,41.63558,-1.220139,0.8181825,0.6322696,44.93393,-24.08614,-38.13283,1002.18
3.377098083,-27.03279,-15.25703,40.83953,-1.139508,0.7747368,0.5782192,44.93393,-24.08614,-38.13283,1002.18
3.382153511,-24.70348,-11.9242,38.57383,-1.072335,0.7111324,0.5213898,44.93393,-24.08614,-38.13283,1002.18
3.387208938,-21.39341,-8.470182,36.18567,-1.002182,0.6255856,0.4386007,44.93393,-24.08614,-38.13283,1002.18
3.392264366,-15.87663,-5.379742,34.04244,-0.9356782,0.519977,0.3586875,44.93393,-24.08614,-38.13283,1002.18
3.397319317,-8.76611,-1.440944,32.51156,-0.8326119,0.4374981,0.3067842,44.93393,-24.08614,-38.13283,1002.18
3.402374744,-1.410403,4.558146,30.18463,-0.7564532,0.3518231,0.3053232,44.93393,-24.08614,-38.13283,1002.18
3.407433987,1.593178,12.67813,26.51053,-0.8081489,0.2539046,0.5422214,44.93393,-24.08614,-38.13283,1002.18
3.412486076,1.899666,22.8584,20.57073,-0.8954453,0.1154563,0.2221144,44.93393,-24.08614,-38.13283,1002.18
3.417541504,22.49565,28.43332,18.97862,-1.013591,0.05550202,-0.2441196,44.93393,-24.08614,-38.13283,1002.18
3.422596454,62.70685,28.91809,17.14157,-1.191067,0.003686899,-0.4812205,44.53643,-23.35729,-39.02928,1002.18
3.427651882,97.76906,23.52497,15.85563,-1.355988,-0.1682224,-0.3504583,44.53643,-23.35729,-39.02928,1002.18
3.432707310,106.4733,25.70646,8.38496,-1.431693,-0.4186366,-0.1636478,44.53643,-23.35729,-39.02928,1002.18
3.437762737,87.10328,42.55239,-10.7816,-1.445808,-0.6039719,-0.1203492,44.53643,-23.35729,-39.02928,1002.18
3.442817688,41.00751,49.21804,-31.2341,-1.539606,-0.6292649,-0.04158976,44.53643,-23.35729,-39.02928,1002.18
3.447873592,-14.1603,30.49361,-38.2149,-1.656298,-0.418098,0.2071293,44.53643,-23.35729,-39.02928,1002.18
3.452929020,-54.86188,4.67934,-33.25486,-1.711423,-0.02282909,0.4235599,44.53643,-23.35729,-39.02928,1002.181
3.457984447,-78.46145,-16.10539,-25.04937,-1.701296,0.4028873,0.5391305,44.53643,-23.35729,-39.02928,1002.181
3.463039875,-83.67174,-18.28687,-18.06857,-1.471241,0.6521205,0.3618423,44.53643,-23.35729,-39.02928,1002.181
3.468094826,-66.26323,-1.925719,-15.313,-1.171589,0.6654862,-0.1304155,44.57584,-24.8367,-38.57771,1002.181
3.473150253,-37.08559,15.76857,-17.63993,-0.9206891,0.4200858,-0.5603271,44.57584,-24.8367,-38.57771,1002.181
3.478205681,-9.133896,24.31273,-21.98761,-0.7437136,0.03503579,-0.7235507,44.57584,-24.8367,-38.57771,1002.181
3.483261585,16.73368,27.46377,-25.17183,-0.6389585,-0.3146405,-0.7051813,44.57584,-24.8367,-38.57771,1002.181
3.488317013,43.39812,26.91839,-28.23359,-0.5572224,-0.5727113,-0.5602689,44.57584,-24.8367,-38.57771,1002.181
3.493371963,57.68045,26.91839,-33.4998,-0.5155216,-0.7648467,-0.3180306,44.57584,-24.8367,-38.57771,1002.18
3.498427391,48.36322,31.28137,-39.86824,-0.5332405,-0.8632518,-0.1695566,44.57584,-24.8367,-38.57771,1002.18
3.503482818,20.90191,38.55299,-45.07322,-0.624094,-0.7787021,-0.1761241,44.57584,-24.8367,-38.57771,1002.18
3.508538246,-4.352685,47.40014,-47.03274,-0.7409757,-0.5559867,-0.3105914,44.57584,-24.8367,-38.57771,1002.18
3.513594150,-13.66992,56.91385,-44.95075,-0.8481894,-0.2705909,-0.4268006,44.57584,-24.8367,-38.57771,1002.18
3.518649101,-9.501681,64.60965,-40.48059,-0.9844861,-0.00412341,-0.4192189,45.67041,-24.0675,-38.58776,1002.18
3.523704529,0.5511195,67.88188,-35.58179,-1.16843,0.1769324,-0.3884622,45.67041,-24.0675,-38.58776,1002.18
3.528762817,7.60034,67.5183,-33.80597,-1.263542,0.3472833,-0.312857,45.67041,-24.0675,-38.58776,1002.18
3.533815384,9.316671,67.21532,-33.37733,-1.24704,0.4903523,-0.4884308,45.67041,-24.0675,-38.58776,1002.18
3.538870335,11.1556,66.79114,-32.94868,-1.162517,0.5919732,-0.70448,45.67041,-24.0675,-38.58776,1002.18
3.543925762,11.27819,64.54906,-36.31661,-1.068608,0.4709842,-0.861165,45.67041,-24.0675,-38.58776,1002.18
3.548981666,6.496984,58.79235,-41.39912,-1.017289,0.2858447,-0.8151286,45.67041,-24.0675,-38.58776,1002.18
3.554037094,-0.7361293,55.21714,-45.7468,-0.9843931,0.08973705,-0.6437635,45.67041,-24.0675,-38.58776,1002.18
3.559092522,-6.804588,51.15714,-47.21645,-0.9783631,-0.02974051,-0.423279,45.67041,-24.0675,-38.58776,1002.18
3.564147472,-14.46678,47.94551,-46.9715,-0.9693152,-0.1037035,-0.249063,45.67041,-24.0675,-38.58776,1002.18
3.569202900,-25.07126,50.0664,-47.40015,-0.9423417,-0.1072185,-0.1756793,46.39157,-22.19411,-36.41557,1002.18
3.574258327,-26.6037,55.70191,-48.13497,-0.9275718,-0.07865881,-0.1798806,46.39157,-22.19411,-36.41557,1002.182
3.576786041,-25.00997,59.8225,-48.86979,-0.8881348,-0.02783836,-0.2431148,46.39157,-22.19411,-36.41557,1002.182
3.581841469,-14.95716,66.12457,-50.4619,-0.8914283,-0.02102668,-0.2797746,46.39157,-22.19411,-36.41557,1002.182
3.586896896,-0.7361293,70.97232,-51.80907,-0.8856983,-0.01735083,-0.2907467,46.39157,-22.19411,-36.41557,1002.182
3.591952324,11.95247,74.66873,-52.42142,-0.9150024,-0.05161757,-0.2808079,46.39157,-22.19411,-36.41557,1002.182
3.597007275,21.39229,76.72903,-53.70736,-0.9530424,-0.07328425,-0.2455712,46.39157,-22.19411,-36.41557,1002.182
3.602063656,27.09296,78.36514,-54.80959,-0.9559389,-0.1000195,-0.2184556,46.39157,-22.19411,-36.41557,1002.182
3.607118606,32.42585,80.60722,-54.56465,-0.9876456,-0.0806817,-0.2492622,46.39157,-22.19411,-36.41557,1002.182
3.612174034,37.75874,83.75826,-55.97306,-1.035956,-0.05445391,-0.2079236,46.39157,-22.19411,-36.41557,1002.182
3.617229462,40.33324,85.93975,-58.23875,-1.080655,-0.04236795,-0.2253866,48.23874,-20.66077,-33.73832,1002.182
3.622284412,43.7659,86.12154,-59.70839,-1.074948,-0.008181361,-0.1939315,48.23874,-20.66077,-33.73832,1002.182
3.627339840,46.27911,86.00035,-60.99433,-1.060079,-0.01785431,-0.1794765,48.23874,-20.66077,-33.73832,1002.182
3.632395267,47.38246,85.63676,-63.13755,-1.061803,0.01449784,-0.1647541,48.23874,-20.66077,-33.73832,1002.182
3.637451172,46.76949,84.72781,-64.60719,-1.05737,0.05064796,-0.1686648,48.23874,-20.66077,-33.73832,1002.182
3.642506599,44.62407,82.9099,-67.54648,-1.054776,0.1003568,-0.1377433,48.23874,-20.66077,-33.73832,1002.182
3.647561550,39.29118,80.91021,-70.17958,-1.052551,0.1022668,-0.09989429,48.23874,-20.66077,-33.73832,1002.182
3.652616978,36.47149,78.00156,-72.62898,-1.036318,0.07142423,-0.06731882,48.23874,-20.66077,-33.73832,1002.182
3.657672405,31.44509,76.00186,-75.13962,-1.026659,0.05040916,-0.04927283,48.23874,-20.66077,-33.73832,1002.18
3.662727833,24.15068,74.06277,-78.87495,-0.9926355,0.05796704,-0.05706243,48.23874,-20.66077,-33.73832,1002.18
3.667782783,19.55336,74.18396,-82.30412,-0.9851759,0.05832129,-0.03893132,50.02192,-18.44842,-29.77868,1002.18
3.672839165,15.87551,74.42635,-84.93723,-0.9812407,0.06452562,-0.02588449,50.02192,-18.44842,-29.77868,1002.18
3.677894115,12.44285,75.63828,-87.14169,-0.979444,0.05199608,-0.06452018,50.02192,-18.44842,-29.77868,1002.18
3.682949543,12.56544,76.24425,-88.97874,-0.9806941,0.04296467,-0.113092,50.02192,-18.44842,-29.77868,1002.18
3.688004970,16.0594,77.15321,-90.08096,-0.9725344,0.01913148,-0.103721,50.02192,-18.44842,-29.77868,1002.18
3.693059921,19.79855,78.36514,-90.69331,-0.9608196,0.01982182,-0.1028567,50.02192,-18.44842,-29.77868,1002.18
3.698115349,22.00527,79.1529,-90.3259,-0.9613255,0.02270247,-0.1008637,50.02192,-18.44842,-29.77868,1002.178
3.703170776,23.84419,79.94066,-89.77479,-0.9466016,0.01568015,-0.1011814,50.02192,-18.44842,-29.77868,1002.178
3.708226681,25.62182,81.33439,-87.93774,-0.9435058,0.0006654497,-0.102071,50.02192,-18.44842,-29.77868,1002.178
3.713282108,29.54487,80.72842,-86.16193,-1.025786,0.06628971,-0.1015404,51.85197,-15.8035,-26.26933,1002.178
3.718337059,30.58693,79.69827,-87.08045,-0.9888952,0.05310686,-0.08546777,51.85197,-15.8035,-26.26933,1002.178
3.723392487,32.24196,79.39529,-87.44786,-0.9737487,0.04431076,-0.09684583,51.85197,-15.8035,-26.26933,1002.178
3.728447914,33.95829,79.45589,-87.20292,-0.9715062,0.05091161,-0.1124981,51.85197,-15.8035,-26.26933,1002.178
3.733503342,36.71669,78.91051,-86.4681,-0.9781722,0.04761915,-0.09576242,51.85197,-15.8035,-26.26933,1002.178
3.738559246,37.57485,77.81977,-85.79452,-0.9868039,0.04812448,-0.07508158,51.85197,-15.8035,-26.26933,1002.178
3.743614674,36.77798,76.36545,-84.87599,-0.9897403,0.0566544,-0.06334696,51.85197,-15.8035,-26.26933,1002.178
3.748669624,35.30684,74.72933,-84.2024,-0.9884333,0.06459013,-0.0717752,51.85197,-15.8035,-26.26933,1002.178
3.753725052,33.22272,72.66904,-83.40635,-0.9807384,0.06685041,-0.08328057,51.85197,-15.8035,-26.26933,1002.178
3.758780479,31.50639,70.30576,-82.67152,-0.9700897,0.06626136,-0.0958438,51.85197,-15.8035,-26.26933,1002.178
3.763835430,29.48357,67.88188,-81.87547,-0.9656601,0.06436957,-0.09401874,52.93302,-12.43635,-21.85722,1002.178
3.768890858,27.76724,64.91264,-81.14066,-0.9519108,0.05589833,-0.09627902,52.93302,-12.43635,-21.85722,1002.178
3.773946762,26.90907,62.60995,-80.22213,-0.9493704,0.0438561,-0.1013966,52.93302,-12.43635,-21.85722,1002.178
3.779002190,26.78648,60.91324,-79.42607,-0.9430536,0.05164256,-0.09359838,52.93302,-12.43635,-21.85722,1002.178
3.784057617,27.46075,59.39832,-78.38508,-0.94032,0.06157914,-0.1039043,52.93302,-12.43635,-21.85722,1002.177
3.789112568,28.50281,58.48936,-76.97667,-0.9377288,0.08272962,-0.1158388,52.93302,-12.43635,-21.85722,1002.177
3.794167995,29.91265,57.03504,-75.8132,-0.9299196,0.07954135,-0.1207812,52.93302,-12.43635,-21.85722,1002.177
3.799223423,31.69028,56.00489,-74.34357,-0.942458,0.06902848,-0.1166211,52.93302,-12.43635,-21.85722,1002.177
3.801751137,32.36456,55.21714,-73.42504,-0.9437906,0.06399663,-0.1071613,52.93302,-12.43635,-21.85722,1002.177
3.806806564,33.40662,54.12639,-71.58799,-0.958507,0.03533807,-0.09626043,52.93302,-12.43635,-21.85722,1002.177
3.811861992,34.38738,52.36908,-69.75094,-0.961123,0.01375777,-0.08816659,53.62134,-8.339573,-17.89249,1002.177
3.816917419,34.93906,50.67237,-67.2403,-0.9761159,-0.0295846,-0.07189125,53.62134,-8.339573,-17.89249,1002.177
3.821972370,35.55203,49.39983,-65.09708,-0.9822941,-0.06424955,-0.0392011,53.62134,-8.339573,-17.89249,1002.175
3.827028751,35.36814,48.1879,-63.07632,-1.003423,-0.08147436,-0.01981022,53.62134,-8.339573,-17.89249,1002.175
3.832083702,35.67463,47.21835,-61.36174,-1.01358,-0.1198837,-0.002018974,53.62134,-8.339573,-17.89249,1002.175
3.837139130,36.165,46.36999,-60.0758,-1.022228,-0.1274412,0.004573257,53.62134,-8.339573,-17.89249,1002.175
3.842194557,37.32966,45.64283,-58.6674,-1.030872,-0.1383394,0.006771763,53.62134,-8.339573,-17.89249,1002.175
3.847249508,39.35248,45.15805,-57.25899,-1.026601,-0.1337464,-0.00224819,53.62134,-8.339573,-17.89249,1002.175
3.852304935,41.4366,45.03686,-56.21799,-1.016767,-0.1108876,-0.02186786,53.62134,-8.339573,-17.89249,1002.175
3.857360363,44.62407,45.88522,-54.68712,-1.038409,-0.07721291,-0.05527771,53.62134,-8.339573,-17.89249,1002.175
3.862416267,48.7923,45.82462,-53.82983,-1.069079,-0.03801313,-0.111442,53.56729,-5.005284,-15.65278,1002.175
3.867471695,52.65405,44.73388,-53.33995,-1.139601,-0.004626803,-0.1534934,53.56729,-5.005284,-15.65278,1002.175
3.872527122,56.08672,43.70373,-52.36019,-1.08673,0.0412396,-0.1288899,53.56729,-5.005284,-15.65278,1002.175
3.877582073,58.41602,42.2494,-49.60461,-1.1553,0.08085041,-0.1617052,53.56729,-5.005284,-15.65278,1002.175
3.882637501,62.21647,38.67419,-46.7878,-1.173206,0.1025706,-0.1719953,53.56729,-5.005284,-15.65278,1002.175
3.887692928,65.52654,35.03838,-44.76704,-1.152091,0.09653316,-0.165167,53.56729,-5.005284,-15.65278,1002.175
3.892748833,68.71401,31.82674,-42.99123,-1.162351,0.1068368,-0.1509243,53.56729,-5.005284,-15.65278,1002.175
3.897804260,71.04332,29.52406,-41.58282,-1.182073,0.1392189,-0.1278923,53.56729,-5.005284,-15.65278,1002.175
3.902859211,70.79813,27.58496,-40.41936,-1.20211,0.1864664,-0.1231508,53.56729,-5.005284,-15.65278,1002.175
3.907914638,68.40752,26.37302,-40.17442,-1.237031,0.2481726,-0.1274763,53.56729,-5.005284,-15.65278,1002.175
3.912970066,63.50372,26.00944,-40.41936,-1.267914,0.2982795,-0.1321347,53.89573,-2.402271,-13.92796,1002.175
3.918025017,58.10954,25.10049,-40.41936,-1.288981,0.3270434,-0.1618448,53.89573,-2.402271,-13.92796,1002.175
3.923080444,51.73459,23.16139,-40.05195,-1.297256,0.3429974,-0.1977464,53.89573,-2.402271,-13.92796,1002.175
3.928136349,46.09521,19.82856,-39.13342,-1.297699,0.3523871,-0.2405914,53.89573,-2.402271,-13.92796,1002.175
3.933191776,41.2527,16.55633,-38.09243,-1.29547,0.3680588,-0.2445229,53.89573,-2.402271,-13.92796,1002.175
3.938247204,38.06523,13.76887,-36.31661,-1.308481,0.3974605,-0.2417377,53.89573,-2.402271,-13.92796,1002.175
3.943302631,38.00393,10.79962,-31.90769,-1.362571,0.4391096,-0.2301141,53.89573,-2.402271,-13.92796,1002.175
3.948357582,35.55203,8.315152,-31.60151,-1.240493,0.4869154,-0.2171268,53.89573,-2.402271,-13.92796,1002.175
3.953413010,33.10013,6.194262,-28.601,-1.303169,0.5318395,-0.1746985,53.89573,-2.402271,-13.92796,1002.175
3.958468437,30.70952,4.315759,-24.00837,-1.313808,0.5466936,-0.1397502,53.48892,-0.2510455,-12.58147,1002.175
3.963524342,29.79006,-0.5319912,-19.59945,-1.327084,0.6232019,-0.163533,53.48892,-0.2510455,-12.58147,1002.175
3.968579769,26.84777,-0.4713944,-15.98658,-1.339746,0.6515198,-0.05497406,53.48892,-0.2510455,-12.58147,1002.175
3.973634720,22.18916,-4.531385,-11.76136,-1.36662,0.7176526,-0.08511579,53.48892,-0.2510455,-12.58147,1002.175
3.978690147,18.14352,-8.348989,-5.637862,-1.395244,0.7686544,-0.04907878,53.48892,-0.2510455,-12.58147,1002.175
3.983745575,13.23972,-11.9242,1.465401,-1.456306,0.7785768,-0.03963182,53.48892,-0.2510455,-12.58147,1002.175
3.988800526,7.784233,-17.8627,9.548426,-1.531043,0.7478347,-0.02869529,53.48892,-0.2510455,-12.58147,1002.174
3.993855953,1.654476,-25.31611,18.97862,-1.576504,0.6867427,-0.002050456,53.48892,-0.2510455,-12.58147,1002.174
3.998911858,-4.413983,-34.28445,27.73523,-1.562866,0.6071811,0.06378162,53.48892,-0.2510455,-12.58147,1002.174
4.003967285,-10.11466,-43.55577,35.32837,-1.526157,0.5416064,0.1666151,53.48892,-0.2510455,-12.58147,1002.174
4.009022713,-15.14106,-52.16053,42.49287,-1.495671,0.5165909,0.2829858,53.44951,1.228367,-13.03304,1002.174
4.014078140,-18.81891,-59.91693,49.47367,-1.459112,0.5407172,0.3746952,53.44951,1.228367,-13.03304,1002.174
4.019133091,-21.5773,-68.64288,56.76064,-1.433794,0.5684375,0.4072369,53.44951,1.228367,-13.03304,1002.174
4.024188518,-22.49677,-79.24733,64.0476,-1.397441,0.5510523,0.4107602,53.44951,1.228367,-13.03304,1002.174
4.029243946,-21.20952,-89.97298,71.76321,-1.330931,0.4844683,0.3897679,53.44951,1.228367,-13.03304,1002.174
4.031771660,-20.29005,-95.06312,75.74349,-1.288779,0.4549218,0.3675534,53.44951,1.228367,-13.03304,1002.174
4.036827087,-18.81891,-103.4255,83.45911,-1.214576,0.4153193,0.3088738,53.44951,1.228367,-13.03304,1002.174
4.041882515,-18.45113,-109.1822,91.29719,-1.107496,0.3593324,0.247552,53.44951,1.228367,-13.03304,1002.174
4.046937465,-19.0028,-112.2726,99.44145,-1.060849,0.3034937,0.1992529,53.44951,1.228367,-13.03304,1002.174
4.051993847,-19.248,-113.3634,108.5655,-1.068955,0.2639474,0.1652905,53.44951,1.228367,-13.03304,1002.174
4.057048797,-19.92227,-112.6362,112.9744,-0.9648356,0.1580165,0.08836477,53.46026,-0.2556891,-15.27588,1002.174
4.062104225,-17.65426,-112.9998,120.8737,-1.055566,0.07916068,0.04269429,53.46026,-0.2556891,-15.27588,1002.174
4.067159652,-16.36701,-107.8491,127.0584,-1.080314,-0.02054988,-0.02375881,53.46026,-0.2556891,-15.27588,1002.174
4.072214603,-14.58938,-100.5774,133.1207,-1.171558,-0.1027373,-0.1403646,53.46026,-0.2556891,-15.27588,1002.174
4.077270031,-10.42114,-94.57834,137.4072,-1.277044,-0.1730836,-0.1875944,53.46026,-0.2556891,-15.27588,1002.174
4.082325458,-9.195193,-90.03358,139.7341,-1.359903,-0.2347735,-0.199869,53.46026,-0.2556891,-15.27588,1002.174
4.087381363,-8.76611,-86.57955,140.7751,-1.491128,-0.2787382,-0.2533663,53.46026,-0.2556891,-15.27588,1002.174
4.092436790,-7.417564,-84.57986,140.5914,-1.574932,-0.280594,-0.2981028,53.46026,-0.2556891,-15.27588,1002.174
4.097492218,-7.601457,-83.24673,139.3667,-1.638359,-0.2685144,-0.338369,53.46026,-0.2556891,-15.27588,1002.174
4.102547169,-9.256491,-82.88315,138.3257,-1.710972,-0.2672432,-0.3831319,53.46026,-0.2556891,-15.27588,1002.174
4.107602596,-12.99564,-83.91329,137.0397,-1.795829,-0.2508455,-0.3479215,54.61477,-4.243714,-20.08936,1002.174
4.112660408,-19.0028,-86.39777,135.3864,-1.846369,-0.2221973,-0.2758602,54.61477,-4.243714,-20.08936,1002.172
4.117713928,-26.665,-89.30641,133.3044,-1.801515,-0.1731951,-0.2104071,54.61477,-4.243714,-20.08936,1002.172
4.122769356,-33.89811,-92.09387,131.4674,-1.683164,-0.1124592,-0.1554044,54.61477,-4.243714,-20.08936,1002.172
4.127827644,-37.94375,-92.76044,129.5691,-1.566015,-0.04608812,-0.1208335,54.61477,-4.243714,-20.08936,1002.172
4.132879734,-40.02787,-91.66969,127.6096,-1.444883,0.009261872,-0.09280418,54.61477,-4.243714,-20.08936,1002.172
4.137935161,-44.1348,-89.91238,125.7725,-1.358132,0.03728186,-0.06945321,54.61477,-4.243714,-20.08936,1002.172
4.142990112,-50.38716,-88.15508,124.1804,-1.307284,0.05658366,-0.09338101,54.61477,-4.243714,-20.08936,1002.172
4.148045540,-57.43637,-87.12492,122.4658,-1.270121,0.06757525,-0.1317532,54.61477,-4.243714,-20.08936,1002.172
4.153101444,-65.09858,-85.7312,120.8125,-1.282538,0.0287502,-0.1541665,54.61477,-4.243714,-20.08936,1002.174
4.158156872,-73.55764,-84.57986,119.5265,-1.28104,-0.001716206,-0.1324535,53.62897,-11.68138,-24.49459,1002.174
4.163212299,-81.71021,-83.24673,117.7507,-1.40575,-0.02687525,-0.1989395,53.62897,-11.68138,-24.49459,1002.174
4.168267727,-85.14288,-83.00434,114.5665,-1.400307,-0.007431924,-0.223392,53.62897,-11.68138,-24.49459,1002.174
4.173322677,-90.10799,-82.39837,112.1783,-1.355472,-0.1044716,-0.2521348,53.62897,-11.68138,-24.49459,1002.174
4.178378105,-90.47577,-79.61092,111.2598,-1.309124,-0.07648349,-0.2767568,53.62897,-11.68138,-24.49459,1002.174
4.183433533,-90.23058,-76.70226,110.9536,-1.222954,-0.07400699,-0.3033611,53.62897,-11.68138,-24.49459,1002.174
4.188489437,-90.10799,-73.49063,110.1576,-1.13531,-0.06152334,-0.3139261,53.62897,-11.68138,-24.49459,1002.174
4.193544864,-89.86279,-69.79422,109.6677,-1.117107,-0.03674128,-0.3216072,53.62897,-11.68138,-24.49459,1002.174
4.198599815,-90.53706,-67.43094,109.7902,-1.125255,0.001829169,-0.3076236,53.62897,-11.68138,-24.49459,1002.174
4.203655243,-92.0695,-65.91602,110.6475,-1.131489,-0.008015633,-0.3078149,51.488,-17.29792,-28.89415,1002.174
4.208710670,-92.86637,-65.43124,110.7087,-1.135658,-0.01850819,-0.294637,51.488,-17.29792,-28.89415,1002.174
4.213765621,-95.01179,-64.3405,110.5862,-1.116953,-0.03940603,-0.3058775,51.488,-17.29792,-28.89415,1002.174
4.218821049,-96.11514,-63.49215,109.5452,-1.100132,-0.06046738,-0.3084868,51.488,-17.29792,-28.89415,1002.174
4.223876953,-97.70888,-62.52259,108.0144,-1.072406,-0.1016346,-0.319849,51.488,-17.29792,-28.89415,1002.174
4.228932380,-98.81224,-62.09842,106.4222,-1.037934,-0.1229964,-0.3130577,51.488,-17.29792,-28.89415,1002.174
4.233989239,-101.3254,-61.00767,104.5852,-1.008057,-0.1259734,-0.3047982,51.488,-17.29792,-28.89415,1002.174
4.239043236,-104.3903,-60.21991,101.8909,-1.008553,-0.1278713,-0.3086717,51.488,-17.29792,-28.89415,1002.174
4.244098186,-106.9648,-59.55335,98.33922,-1.005698,-0.1590642,-0.3018314,51.488,-17.29792,-28.89415,1002.174
4.249153614,-110.2749,-58.4626,94.66512,-0.9547971,-0.1911997,-0.2700953,51.488,-17.29792,-28.89415,1002.174
4.254209041,-112.2364,-56.5235,91.4809,-0.929942,-0.2263393,-0.2649995,49.69911,-21.73151,-32.46464,1002.174
4.259264946,-112.6655,-54.7056,88.84779,-0.9984057,-0.1931144,-0.2936694,49.69911,-21.73151,-32.46464,1002.174
4.261792183,-112.972,-54.09963,87.01073,-0.8255332,-0.1919665,-0.2215464,49.69911,-21.73151,-32.46464,1002.174
4.266847610,-116.0982,-47.79755,83.82652,-0.8674842,-0.2413056,-0.2281487,49.69911,-21.73151,-32.46464,1002.174
4.271903515,-115.9756,-45.07069,79.96871,-0.8000159,-0.2755032,-0.2660409,49.69911,-21.73151,-32.46464,1002.174
4.276958942,-111.5621,-44.22234,75.62103,-0.7853535,-0.2538853,-0.2943553,49.69911,-21.73151,-32.46464,1002.175
4.282013893,-107.6391,-42.52563,72.37556,-0.78104,-0.215134,-0.3096889,49.69911,-21.73151,-32.46464,1002.175
4.287069321,-104.8807,-41.19249,68.70146,-0.7062825,-0.2258099,-0.3168907,49.69911,-21.73151,-32.46464,1002.175
4.292124748,-102.1223,-39.31399,65.70095,-0.6851937,-0.20375,-0.3342433,49.69911,-21.73151,-32.46464,1002.175
4.297180176,-99.11873,-35.43579,61.84314,-0.6334281,-0.2228452,-0.3601131,49.69911,-21.73151,-32.46464,1002.175
4.302235126,-94.09232,-31.86057,58.29151,-0.6091012,-0.233202,-0.3859802,46.81804,-24.77551,-36.86319,1002.175
4.307291031,-88.14646,-28.40655,54.61741,-0.570772,-0.2582122,-0.3908082,46.81804,-24.77551,-36.86319,1002.175
4.312346458,-82.87487,-24.34656,51.9843,-0.5568237,-0.2442395,-0.3968087,46.81804,-24.77551,-36.86319,1002.175
4.317401886,-77.84847,-20.52896,50.08601,-0.5633597,-0.2373371,-0.4109342,46.81804,-24.77551,-36.86319,1002.175
4.322457313,-73.00596,-17.01434,48.1265,-0.546062,-0.2488464,-0.4008576,46.81804,-24.77551,-36.86319,1002.175
4.327512264,-70.12498,-13.25734,46.22821,-0.5449607,-0.2500128,-0.386535,46.81804,-24.77551,-36.86319,1002.175
4.332567692,-68.46994,-9.621523,43.90128,-0.5536468,-0.2470263,-0.3691419,46.81804,-24.77551,-36.86319,1002.175
4.337623119,-67.91827,-6.470485,42.43164,-0.5625786,-0.2735386,-0.3644649,46.81804,-24.77551,-36.86319,1002.175
4.342679024,-66.69231,-2.834672,40.53335,-0.5597906,-0.2912766,-0.3462707,46.81804,-24.77551,-36.86319,1002.175
4.347734451,-63.19835,0.01338062,37.04295,-0.5410615,-0.2884158,-0.3190861,46.81804,-24.77551,-36.86319,1002.175
4.352789402,-58.17195,3.527999,34.22614,-0.5036976,-0.3048951,-0.3098043,44.96379,-25.5671,-38.57939,1002.175
4.357844829,-52.28738,7.466796,31.65427,-0.4942463,-0.3112425,-0.2966498,44.96379,-25.5671,-38.57939,1002.174
4.362900257,-46.15762,13.2235,28.77623,-0.4941492,-0.3014251,-0.2695911,44.96379,-25.5671,-38.57939,1002.174
4.367955685,-39.84398,19.34378,25.16336,-0.4951804,-0.2808701,-0.2460787,44.96379,-25.5671,-38.57939,1002.174
4.373010635,-31.93659,26.61541,21.67296,-0.5041801,-0.3105889,-0.2548878,44.96379,-25.5671,-38.57939,1002.174
4.378066540,-23.90661,33.15987,18.12133,-0.5219035,-0.3405844,-0.2559613,44.96379,-25.5671,-38.57939,1002.174
4.383121967,-19.248,37.76524,14.14105,-0.5006693,-0.3525567,-0.2425824,44.96379,-25.5671,-38.57939,1002.174
4.388177395,-17.65426,41.03747,10.28325,-0.5345656,-0.360827,-0.219492,44.96379,-25.5671,-38.57939,1002.174
4.393232822,-18.63502,42.97657,5.690619,-0.5370432,-0.3389038,-0.1916225,44.96379,-25.5671,-38.57939,1002.174
4.398287773,-20.71914,44.00671,0.9755213,-0.576343,-0.3395916,-0.1615858,44.96379,-25.5671,-38.57939,1002.174
4.403343201,-23.47753,44.85507,-4.596867,-0.61226,-0.3330126,-0.1251725,44.6057,-26.31767,-39.02428,1002.174
4.408398628,-24.51958,44.12791,-10.47543,-0.7053365,-0.319293,-0.08372869,44.6057,-26.31767,-39.02428,1002.174
4.413454532,-22.86455,43.58253,-15.86411,-0.7828536,-0.2913696,-0.02914463,44.6057,-26.31767,-39.02428,1002.174
4.418509960,-21.516,43.94612,-20.82415,-0.8286443,-0.2409644,0.05826612,44.6057,-26.31767,-39.02428,1002.174
4.423564911,-24.27439,44.61268,-24.74319,-0.8855188,-0.2015029,0.1478973,44.6057,-26.31767,-39.02428,1002.174
4.428620338,-33.65292,43.64313,-26.58024,-1.00642,-0.1159258,0.2962774,44.6057,-26.31767,-39.02428,1002.174
4.433675766,-49.2838,40.24971,-26.51901,-1.053459,-0.02361639,0.4110963,44.6057,-26.31767,-39.02428,1002.174
4.438731193,-68.40865,34.67479,-25.35554,-1.104162,0.09666418,0.4730404,44.6057,-26.31767,-39.02428,1002.179
4.443786144,-86.92051,30.31182,-21.49773,-1.142489,0.2943687,0.5468891,44.6057,-26.31767,-39.02428,1002.179
4.448842049,-102.5514,27.88794,-12.80236,-1.112769,0.4748558,0.6196568,45.35741,-25.92512,-37.2345,1002.179
4.453897476,-107.8843,28.37272,0.301936,-1.137941,0.7356113,0.6585981,45.35741,-25.92512,-37.2345,1002.179
4.458952904,-108.5585,30.79659,12.79388,-1.154688,0.9682331,0.7345664,45.35741,-25.92512,-37.2345,1002.179
4.464008331,-107.5778,33.22047,23.26507,-1.201189,1.166509,0.8252631,45.35741,-25.92512,-37.2345,1002.179
4.469063282,-104.2677,34.31121,30.85822,-1.222933,1.277972,0.8943694,45.35741,-25.92512,-37.2345,1002.179
4.474118709,-99.793,35.34136,31.59304,-1.294825,1.308377,0.9853487,45.35741,-25.92512,-37.2345,1002.179
4.479174614,-96.17645,38.18941,27.8577,-1.354887,1.328307,1.075471,45.35741,-25.92512,-37.2345,1002.181
4.484230041,-90.41447,42.18881,23.51001,-1.371646,1.341636,1.074532,45.35741,-25.92512,-37.2345,1002.181
4.486757278,-86.12364,43.21895,21.48926,-1.375328,1.355395,1.061033,45.35741,-25.92512,-37.2345,1002.181
4.491812706,-76.56122,42.00702,19.71344,-1.406171,1.34929,1.040583,45.35741,-25.92512,-37.2345,1002.181
4.496868610,-68.16345,35.22017,20.01962,-1.433997,1.338313,1.024289,46.06791,-24.79635,-37.69131,1002.181
4.501924038,-60.37866,23.82795,23.57125,-1.434431,1.294881,0.9666965,46.06791,-24.79635,-37.69131,1002.181
4.506978989,-51.18402,10.43604,28.10264,-1.392406,1.211336,0.9105556,46.06791,-24.79635,-37.69131,1002.181
4.512034416,-42.66366,-2.774076,32.26662,-1.311621,1.094365,0.8924566,46.06791,-24.79635,-37.69131,1002.181
4.517089844,-37.88245,-11.50003,34.71602,-1.223164,0.9640244,0.8993192,46.06791,-24.79635,-37.69131,1002.181
4.522145271,-38.49543,-15.68121,36.2469,-1.144459,0.8529652,0.8737301,46.06791,-24.79635,-37.69131,1002.183
4.527200222,-40.94733,-15.863,36.73678,-1.030671,0.7645263,0.8105626,46.06791,-24.79635,-37.69131,1002.183
4.532256126,-43.64442,-14.10569,36.00196,-0.9462947,0.7124005,0.7232221,46.06791,-24.79635,-37.69131,1002.183
4.537311554,-43.82832,-11.19704,34.22614,-0.8810306,0.6619714,0.6289241,46.06791,-24.79635,-37.69131,1002.183
4.542370796,-41.06993,-7.197648,32.02168,-0.8370159,0.6130697,0.5037468,46.06791,-24.79635,-37.69131,1002.183
4.547422409,-34.44979,-2.289301,29.81722,-0.7726423,0.5220359,0.4227879,45.30068,-23.70562,-37.68732,1002.183
4.552481651,-24.94867,3.346209,27.91894,-0.7248256,0.4101935,0.3787994,45.30068,-23.70562,-37.68732,1002.183
4.557532787,-19.67708,11.46619,24.85718,-0.7141702,0.3080562,0.780171,45.30068,-23.70562,-37.68732,1002.183
4.562588215,-24.33569,25.40347,17.32528,-0.7602623,0.09004083,0.4298847,45.30068,-23.70562,-37.68732,1002.185
4.567644119,-4.965661,28.6757,14.14105,-0.8621052,-0.01195047,-0.1993905,45.30068,-23.70562,-37.68732,1002.185
4.572699547,42.78514,20.07095,15.42699,-1.232291,0.001329551,-0.7006386,45.30068,-23.70562,-37.68732,1002.185
4.577754497,106.0442,5.951874,16.59045,-1.664247,-0.05605776,-0.6510959,45.30068,-23.70562,-37.68732,1002.185
4.582809925,153.4272,4.436952,13.95735,-1.836196,-0.2946294,-0.2682221,45.30068,-23.70562,-37.68732,1002.185
4.587865353,161.1507,26.00944,-3.127226,-1.689542,-0.7179806,-0.1195064,45.30068,-23.70562,-37.68732,1002.185
4.592920780,106.6572,46.61238,-29.51952,-1.688989,-0.97677,0.005568642,45.30068,-23.70562,-37.68732,1002.185
4.597975731,16.0594,34.06882,-43.1137,-2.044877,-0.8906744,0.3826336,44.57196,-24.46589,-38.12927,1002.185
4.603031635,-60.43996,-2.046913,-37.11267,-2.277941,-0.5413337,0.7499077,44.57196,-24.46589,-38.12927,1002.185
4.608087063,-106.8422,-39.73817,-21.98761,-2.258926,0.1018809,1.139024,44.57196,-24.46589,-38.12927,1002.185
4.613142490,-141.0462,-60.09872,-6.617622,-1.932505,0.7550143,1.211424,44.57196,-24.46589,-38.12927,1002.185
4.618197918,-151.1604,-42.34383,3.731097,-1.384084,1.237798,0.4515461,44.57196,-24.46589,-38.12927,1002.185
4.623252869,-124.312,1.831287,6.547909,-0.834933,1.26144,-0.5838006,44.57196,-24.46589,-38.12927,1002.185
4.628308296,-81.95541,36.85628,4.649623,-0.6021567,0.8146021,-1.070366,44.57196,-24.46589,-38.12927,1002.185
4.633364201,-30.89453,49.82401,-2.392405,-0.6362329,0.1795872,-1.375349,44.57196,-24.46589,-38.12927,1002.185
4.638419628,43.03033,34.25062,-7.474913,-0.6858922,-0.2696766,-1.461941,44.57196,-24.46589,-38.12927,1002.185
4.643475056,113.3999,8.254556,-11.27148,-0.5859454,-0.7401558,-1.049709,44.57196,-24.46589,-38.12927,1002.185
4.648530006,126.8854,-3.258851,-17.7624,-0.3868178,-1.227962,-0.5273059,44.96856,-25.56632,-38.13033,1002.189
4.653585434,68.59142,4.921727,-29.09088,-0.1961047,-1.419493,-0.2060302,44.96856,-25.56632,-38.13033,1002.189
4.658640861,-19.43189,27.58496,-37.23514,-0.3188011,-1.162211,-0.2835499,44.96856,-25.56632,-38.13033,1002.189
4.663700581,-62.34018,53.82341,-39.25589,-0.4993887,-0.6714793,-0.4895978,44.96856,-25.56632,-38.13033,1002.189
4.668752193,-52.59387,68.48785,-34.17339,-0.7686746,-0.3142344,-0.4363215,44.96856,-25.56632,-38.13033,1002.189
4.673807144,-25.19386,72.42665,-28.23359,-1.050588,-0.08572657,-0.3153421,44.96856,-25.56632,-38.13033,1002.189
4.678862572,-7.478861,71.4571,-25.41677,-1.223998,0.1391892,-0.3084655,44.96856,-25.56632,-38.13033,1002.189
4.683917999,-2.391164,74.00217,-25.96789,-1.25532,0.3584098,-0.4940995,44.96856,-25.56632,-38.13033,1002.189
4.688973427,-0.1844513,81.2132,-29.76446,-1.192936,0.4784416,-0.8301175,44.96856,-25.56632,-38.13033,1002.189
4.694028377,6.680876,85.75796,-33.00992,-1.156617,0.4410101,-1.048766,44.18879,-23.73472,-37.67851,1002.189
4.699083805,15.32383,81.33439,-36.74525,-1.194087,0.2536424,-1.061313,44.18879,-23.73472,-37.67851,1002.189
4.704139709,18.94039,65.39741,-39.68454,-1.25731,0.045305,-0.7763638,44.18879,-23.73472,-37.67851,1002.189
4.709195137,14.46567,54.18699,-43.05246,-1.236487,-0.1097727,-0.4018078,44.18879,-23.73472,-37.67851,1002.189
4.714250565,4.412866,55.39893,-42.25641,-1.227931,-0.1837377,-0.2280659,44.18879,-23.73472,-37.67851,1002.189
4.716777801,4.228974,56.73206,-42.92999,-1.16605,-0.1771248,-0.1705536,44.18879,-23.73472,-37.67851,1002.189
4.721833706,1.593178,60.42847,-43.97099,-1.054448,-0.1894741,-0.1503786,44.18879,-23.73472,-37.67851,1002.189
4.726889133,4.780652,66.85174,-43.35864,-1.057293,-0.1369531,-0.2495552,44.18879,-23.73472,-37.67851,1002.187
4.731944084,14.95605,70.00277,-44.95075,-1.038488,-0.116218,-0.3114439,44.18879,-23.73472,-37.67851,1002.187
4.736999512,27.33816,72.06306,-47.03274,-1.027527,-0.06172445,-0.264681,44.18879,-23.73472,-37.67851,1002.187
4.742054939,32.85494,74.42635,-50.2782,-1.035786,-0.05857767,-0.1922311,45.67331,-22.58124,-35.06187,1002.187
4.747110367,35.24554,76.00186,-51.6866,-1.018266,-0.02673881,-0.1518511,45.67331,-22.58124,-35.06187,1002.187
4.752165317,34.93906,77.2138,-52.48266,-0.9954639,-0.01606334,-0.1541891,45.67331,-22.58124,-35.06187,1002.187
4.757221222,37.75874,78.54694,-53.58489,-0.9726568,-0.02253559,-0.1813794,45.67331,-22.58124,-35.06187,1002.187
4.762276649,44.74667,80.60722,-54.56465,-0.9879915,-0.02767255,-0.2148777,45.67331,-22.58124,-35.06187,1002.187
4.767332077,53.81871,82.54633,-54.68712,-1.010399,-0.03340497,-0.2172053,45.67331,-22.58124,-35.06187,1002.189
4.772387505,60.62273,85.0308,-55.78935,-1.022334,-0.0422177,-0.1957726,45.67331,-22.58124,-35.06187,1002.189
4.777442455,66.3847,86.9093,-57.13652,-1.068962,-0.07349607,-0.2119256,45.67331,-22.58124,-35.06187,1002.189
4.782497883,70.00126,88.24243,-58.54493,-0.9916992,-0.04242998,-0.2741044,45.67331,-22.58124,-35.06187,1002.189
4.787553787,76.25361,88.06064,-60.25951,-1.033343,0.04556827,-0.2877519,45.67331,-22.58124,-35.06187,1002.189
4.792609215,82.07688,87.69706,-62.77014,-1.054364,0.04143512,-0.2977121,46.79287,-21.06509,-31.0957,1002.189
4.797664642,88.02274,86.06094,-64.60719,-1.088187,0.1148374,-0.2691954,46.79287,-21.06509,-31.0957,1002.189
4.802719593,85.57084,84.06125,-67.36277,-1.067751,0.2238014,-0.2412455,46.79287,-21.06509,-31.0957,1002.189
4.807775021,82.38337,81.87976,-70.17958,-1.056263,0.2725175,-0.1979856,46.79287,-21.06509,-31.0957,1002.189
4.812830448,77.84734,81.2132,-73.3638,-1.020726,0.2876297,-0.1883624,46.79287,-21.06509,-31.0957,1002.189
4.817885876,73.61781,79.39529,-75.69073,-1.014027,0.233332,-0.1610805,46.79287,-21.06509,-31.0957,1002.189
4.822941780,69.20439,78.42574,-78.0789,-0.9902604,0.2231386,-0.1333178,46.79287,-21.06509,-31.0957,1002.189
4.827996731,63.31982,77.15321,-80.03842,-0.9895209,0.1827296,-0.09844521,46.79287,-21.06509,-31.0957,1002.189
4.833052158,58.17083,76.42604,-81.32436,-0.9950641,0.1335191,-0.06852447,46.79287,-21.06509,-31.0957,1002.189
4.838107586,57.55786,74.91112,-82.30412,-0.9887528,0.08188311,-0.02441484,46.79287,-21.06509,-31.0957,1002.189
4.843163013,57.55786,74.78992,-82.48782,-0.9830415,0.06135229,-0.01110676,47.90854,-19.17812,-26.68109,1002.189
4.848217964,57.31267,74.30515,-83.03894,-0.9790712,0.079831,-0.03796362,47.90854,-19.17812,-26.68109,1002.189
4.853273392,58.8451,73.88097,-83.03894,-0.9637684,0.09593877,-0.05493402,47.90854,-19.17812,-26.68109,1002.189
4.858329296,62.76815,73.75978,-83.10017,-0.9383075,0.09530452,-0.04609452,47.90854,-19.17812,-26.68109,1002.189
4.863384724,66.81378,75.15351,-81.93671,-0.929915,0.07195368,-0.06878996,47.90854,-19.17812,-26.68109,1002.189
4.868440151,71.04332,75.75948,-81.07941,-0.9461395,0.07330346,-0.08152863,47.90854,-19.17812,-26.68109,1002.189
4.873495102,74.16949,76.06246,-80.28336,-0.9438978,0.09799644,-0.07038968,47.90854,-19.17812,-26.68109,1002.189
4.878550529,77.41827,75.2141,-78.99743,-0.9282588,0.1111004,-0.04866058,47.90854,-19.17812,-26.68109,1002.189
4.883605957,79.68627,74.18396,-77.0379,-0.9686792,0.1463296,-0.04642566,47.90854,-19.17812,-26.68109,1002.189
4.888661385,81.4026,72.54784,-74.15986,-0.9323575,0.1461415,-0.02139985,47.90854,-19.17812,-26.68109,1002.189
4.893717289,83.42542,69.27561,-70.91441,-1.021706,0.2268348,-0.02855829,49.67828,-16.5965,-23.17115,1002.191
4.898772240,82.26077,65.39741,-70.54699,-0.992026,0.2427894,-0.01742205,49.67828,-16.5965,-23.17115,1002.191
4.903827667,79.99276,61.88279,-69.75094,-0.9832309,0.2557874,0.002932788,49.67828,-16.5965,-23.17115,1002.191
4.908883095,76.25361,57.7622,-69.13859,-0.9867471,0.2687629,0.009519586,49.67828,-16.5965,-23.17115,1002.191
4.913938522,72.20797,54.0658,-68.2813,-0.9973839,0.2755188,0.032772,49.67828,-16.5965,-23.17115,1002.191
4.918993473,67.42676,50.42998,-67.30154,-0.998759,0.2738984,0.04184014,49.67828,-16.5965,-23.17115,1002.191
4.924049377,61.72609,47.09715,-66.0156,-1.000328,0.288348,0.04988226,49.67828,-16.5965,-23.17115,1002.191
4.929104805,56.82228,44.85507,-64.66843,-0.986632,0.3009222,0.07209501,49.67828,-16.5965,-23.17115,1002.191
4.934160233,51.4894,43.40075,-63.50496,-0.9637952,0.3124856,0.07552429,49.67828,-16.5965,-23.17115,1002.189
4.939215660,46.463,42.3706,-62.03532,-0.9440946,0.308232,0.09150758,50.02673,-13.61879,-18.75254,1002.189
4.941743374,44.25629,42.55239,-61.42297,-0.9397241,0.3112107,0.09297823,50.02673,-13.61879,-18.75254,1002.189
4.946798801,40.02675,43.15836,-59.76963,-0.9269963,0.3089941,0.09423783,50.02673,-13.61879,-18.75254,1002.189
4.951854229,36.04241,43.88552,-58.29999,-0.9385509,0.2932487,0.09155313,50.02673,-13.61879,-18.75254,1002.189
4.956909180,31.44509,44.73388,-56.52417,-0.943748,0.2771209,0.08975613,50.02673,-13.61879,-18.75254,1002.189
4.961964607,26.66388,45.64283,-55.54441,-0.9488779,0.2475383,0.0766052,50.02673,-13.61879,-18.75254,1002.189
4.967020035,23.04733,46.00641,-54.56465,-0.9491503,0.2076157,0.04495294,50.02673,-13.61879,-18.75254,1002.189
4.972075462,21.2697,45.82462,-53.40118,-0.9409226,0.166994,0.03809775,50.02673,-13.61879,-18.75254,1002.189
4.977135181,21.02451,46.61238,-52.48266,-0.931703,0.1177919,0.02048254,50.02673,-13.61879,-18.75254,1002.188
4.982186317,22.00527,46.85477,-51.25796,-0.9447379,0.06967609,-0.03232245,50.02673,-13.61879,-18.75254,1002.188
4.987241745,25.37663,47.09715,-49.78832,-0.9675165,0.02515619,-0.07728389,51.10188,-10.99549,-16.52037,1002.188
4.992297173,29.36098,45.64283,-48.56362,-0.97368,-0.01576337,-0.1146508,51.10188,-10.99549,-16.52037,1002.188
4.997352600,33.897,44.67328,-47.27768,-0.9658736,-0.04132187,-0.1531957,51.10188,-10.99549,-16.52037,1002.188
5.002407551,38.8008,43.27955,-46.54286,-1.002222,-0.04727241,-0.1908249,51.10188,-10.99549,-16.52037,1002.188
5.007467270,43.39812,41.40105,-45.99174,-0.980329,-0.03531152,-0.182589,51.10188,-10.99549,-16.52037,1002.188
5.012518883,46.58559,40.4315,-45.7468,-0.987377,-0.01552033,-0.1805832,51.10188,-10.99549,-16.52037,1002.188
5.017574310,49.09879,40.00732,-45.44063,-1.008116,0.005968756,-0.1788835,51.10188,-10.99549,-16.52037,1002.188
5.022629738,50.99902,39.52254,-44.52211,-1.03225,0.03640144,-0.1611255,51.10188,-10.99549,-16.52037,1002.188
5.027684688,52.10238,39.09837,-42.74629,-1.04722,0.05911353,-0.1690244,51.10188,-10.99549,-16.52037,1002.188
5.032740116,53.63481,37.88643,-41.21541,-1.052198,0.06634588,-0.1707086,51.10188,-10.99549,-16.52037,1002.188
5.037795543,54.55428,36.37151,-38.45984,-1.067037,0.08119897,-0.1735421,50.30978,-8.051538,-14.78739,1002.188
5.042851448,55.59634,34.00823,-35.82673,-1.081701,0.08192015,-0.1748214,50.30978,-8.051538,-14.78739,1002.188
5.047906875,56.27061,31.82674,-32.94868,-1.101284,0.09976175,-0.1555114,50.30978,-8.051538,-14.78739,1002.188
5.052961826,55.65763,29.22108,-29.88693,-1.115311,0.1235453,-0.1035478,50.30978,-8.051538,-14.78739,1002.188
5.058017254,53.26703,26.55481,-27.25383,-1.120853,0.1433243,-0.03357345,50.30978,-8.051538,-14.78739,1002.188
5.063072681,50.07956,26.37302,-25.17183,-1.127155,0.1493166,-0.01899898,50.30978,-8.051538,-14.78739,1002.188
5.068128109,47.62765,26.67601,-23.82467,-1.141001,0.1593569,-0.08946844,50.30978,-8.051538,-14.78739,1002.188
5.073183059,45.72743,26.19123,-22.59996,-1.189466,0.1663132,-0.1592103,50.30978,-8.051538,-14.78739,1002.188
5.078239441,40.76233,23.88855,-21.4365,-1.254934,0.1547562,-0.1833016,50.30978,-8.051538,-14.78739,1002.188
5.083294391,34.44867,20.49512,-20.64044,-1.296235,0.1550371,-0.2207255,50.30978,-8.051538,-14.78739,1002.188
5.088349819,31.2612,16.07155,-19.29327,-1.304954,0.1566181,-0.2723083,50.65144,-6.189281,-13.44624,1002.188
5.093405247,32.73234,11.76917,-18.12981,-1.303207,0.1527507,-0.3044996,50.65144,-6.189281,-13.44624,1002.188
5.098460197,35.91982,8.496943,-17.63993,-1.274748,0.1767581,-0.3127761,50.65144,-6.189281,-13.44624,1002.188
5.103515625,39.90416,5.891277,-17.57869,-1.279337,0.1965594,-0.3083994,50.65144,-6.189281,-13.44624,1002.188
5.108571052,44.07239,2.800837,-18.61969,-1.333691,0.1897397,-0.2774187,50.65144,-6.189281,-13.44624,1002.188
5.113626957,46.58559,0.316365,-18.68092,-1.215603,0.2077156,-0.1942963,50.65144,-6.189281,-13.44624,1002.188
5.118682384,49.58917,-3.501238,-16.90511,-1.256042,0.2135015,-0.1755743,50.65144,-6.189281,-13.44624,1002.188
5.123737335,52.16367,-6.95526,-15.61917,-1.258899,0.2418781,-0.1240783,50.65144,-6.189281,-13.44624,1002.188
5.128792763,53.32832,-10.59107,-13.65965,-1.278419,0.2634126,-0.09126997,50.65144,-6.189281,-13.44624,1002.188
5.133848190,52.53146,-12.59077,-11.39395,-1.2815,0.3097806,-0.104425,50.65144,-6.189281,-13.44624,1002.188
5.138903618,52.47016,-14.40868,-7.903558,-1.276344,0.3773245,-0.1568563,50.26439,-5.087295,-12.54704,1002.186
5.143958568,53.26703,-15.9236,-2.821051,-1.31627,0.4348876,-0.1832625,50.26439,-5.087295,-12.54704,1002.186
5.149014950,52.65405,-17.92329,4.649623,-1.376733,0.4674255,-0.1885665,50.26439,-5.087295,-12.54704,1002.186
5.154069900,49.65047,-21.37732,13.345,-1.516107,0.5357852,-0.1812029,50.26439,-5.087295,-12.54704,1002.186
5.159125328,43.09163,-29.31551,23.63248,-1.584856,0.5106592,-0.08256836,50.26439,-5.087295,-12.54704,1002.186
5.164180755,33.52921,-41.1319,31.77674,-1.558525,0.5070601,0.1588618,50.26439,-5.087295,-12.54704,1002.186
5.169235706,20.16634,-45.85845,37.2879,-1.555252,0.4880223,0.3627748,50.26439,-5.087295,-12.54704,1002.186
5.171763897,14.89475,-50.52441,40.34965,-1.50382,0.4744208,0.4902489,50.26439,-5.087295,-12.54704,1002.186
5.176819324,9.316671,-53.49366,46.77932,-1.403957,0.5019695,0.692039,50.26439,-5.087295,-12.54704,1002.186
5.181874275,7.784233,-56.5235,51.61689,-1.352873,0.5042102,0.7356584,50.26439,-5.087295,-12.54704,1002.188
5.186929703,10.48133,-61.25006,56.76064,-1.305037,0.5098059,0.6807705,49.88331,-5.47014,-14.33976,1002.188
5.191985130,13.85269,-66.82497,61.96561,-1.264462,0.5032171,0.552871,49.88331,-5.47014,-14.33976,1002.188
5.197041035,16.36589,-72.88466,68.64023,-1.211914,0.4630363,0.4082058,49.88331,-5.47014,-14.33976,1002.188
5.202096462,19.79855,-78.70196,75.68226,-1.239934,0.4200097,0.2565698,49.88331,-5.47014,-14.33976,1002.188
5.207151890,23.7216,-86.45836,83.45911,-1.219657,0.3627189,0.1424151,49.88331,-5.47014,-14.33976,1002.188
5.212206840,29.29968,-95.00252,91.35843,-1.177701,0.2931085,0.09811904,49.88331,-5.47014,-14.33976,1002.188
5.217262268,34.44867,-101.9712,97.35946,-1.099248,0.1649028,0.01464607,49.88331,-5.47014,-14.33976,1002.188
5.222317695,40.51713,-106.2735,103.8504,-1.102391,0.1067276,-0.03659307,49.88331,-5.47014,-14.33976,1002.192
5.227372646,46.03391,-110.5153,106.8509,-1.0922,-0.005250691,-0.08549559,49.88331,-5.47014,-14.33976,1002.192
5.232429027,49.34398,-113.5452,110.5862,-1.100274,-0.07246751,-0.1565468,49.5068,-6.223694,-16.51677,1002.192
5.237483978,53.32832,-112.5756,112.9744,-1.067478,-0.1010798,-0.1877455,49.5068,-6.223694,-16.51677,1002.192
5.242539406,54.55428,-107.9097,115.3626,-1.079127,-0.09907405,-0.238811,49.5068,-6.223694,-16.51677,1002.192
5.247594833,52.47016,-102.0318,117.0159,-1.111359,-0.07257337,-0.3264022,49.5068,-6.223694,-16.51677,1002.192
5.252649784,49.28268,-96.94162,118.4243,-1.177389,-0.04071964,-0.3580025,49.5068,-6.223694,-16.51677,1002.192
5.257705211,43.21423,-92.09387,120.2001,-1.298561,-0.01319546,-0.3307836,49.5068,-6.223694,-16.51677,1002.192
5.262760639,35.18425,-88.15508,122.5271,-1.453588,0.02784055,-0.3052951,49.5068,-6.223694,-16.51677,1002.188
5.267816543,26.84777,-85.7312,125.4051,-1.604494,0.04998231,-0.2803257,49.5068,-6.223694,-16.51677,1002.188
5.272871971,18.08222,-84.70105,127.2421,-1.692828,0.06404713,-0.256153,49.5068,-6.223694,-16.51677,1002.188
5.277927399,8.397208,-85.18583,127.4871,-1.743211,0.0733622,-0.1927233,49.5068,-6.223694,-16.51677,1002.188
5.282982349,-3.004139,-85.61,126.3236,-1.761093,0.08745943,-0.1486294,49.25864,-11.05079,-21.3818,1002.188
5.288037777,-15.50884,-86.21597,124.4866,-1.700352,0.1185998,-0.1383584,49.25864,-11.05079,-21.3818,1002.188
5.293093204,-25.56164,-85.79179,122.8945,-1.607174,0.1532117,-0.1575097,49.25864,-11.05079,-21.3818,1002.188
5.298149109,-32.61086,-85.42822,121.6698,-1.502626,0.1730057,-0.1804963,49.25864,-11.05079,-21.3818,1002.188
5.303204536,-39.1697,-85.36761,120.8737,-1.424771,0.1458844,-0.1905391,49.25864,-11.05079,-21.3818,1002.188
5.308259487,-47.62877,-85.7312,120.2001,-1.36321,0.1069506,-0.1791842,49.25864,-11.05079,-21.3818,1002.188
5.313314915,-56.08783,-85.42822,119.5265,-1.331045,0.06958623,-0.1790016,49.25864,-11.05079,-21.3818,1002.188
5.318370342,-67.24399,-83.54971,118.9754,-1.344143,0.07062323,-0.1668826,49.25864,-11.05079,-21.3818,1002.188
5.323425293,-78.21626,-83.00434,117.1384,-1.443401,-0.07973077,-0.1601903,49.25864,-11.05079,-21.3818,1002.188
5.328480720,-84.52991,-80.39867,116.0974,-1.404339,-0.1865185,-0.1297608,49.25864,-11.05079,-21.3818,1002.188
5.333536625,-89.86279,-78.64137,115.8524,-1.420349,-0.1984197,-0.1346995,47.12722,-16.66578,-24.88322,1002.188
5.338592052,-93.96973,-76.94465,115.485,-1.375216,-0.2028171,-0.1754531,47.12722,-16.66578,-24.88322,1002.188
5.343647480,-95.37957,-74.70257,114.444,-1.339305,-0.1760974,-0.2258614,47.12722,-16.66578,-24.88322,1002.188
5.348702907,-93.54065,-73.00585,114.0154,-1.275487,-0.1528351,-0.2708763,47.12722,-16.66578,-24.88322,1002.188
5.353757858,-86.67532,-71.24854,113.5255,-1.238207,-0.1449169,-0.2987952,47.12722,-16.66578,-24.88322,1002.188
5.358813286,-78.64534,-70.64258,112.9744,-1.196483,-0.07135295,-0.2853512,47.12722,-16.66578,-24.88322,1002.188
5.363868713,-73.80283,-69.97601,112.5457,-1.160538,-0.04989522,-0.2765281,47.12722,-16.66578,-24.88322,1002.188
5.368924618,-69.69589,-68.76408,111.7497,-1.119839,-0.01430655,-0.263082,47.12722,-16.66578,-24.88322,1002.188
5.373980045,-67.1214,-67.37035,110.525,-1.062451,-0.02091957,-0.2379399,47.12722,-16.66578,-24.88322,1002.188
5.379034996,-66.07934,-65.37065,108.443,-1.041497,-0.01809002,-0.2385448,47.12722,-16.66578,-24.88322,1002.188
5.384090423,-65.46636,-63.55274,105.1975,-1.023238,-0.03288654,-0.2352634,44.95495,-20.73969,-28.83632,1002.186
5.389145851,-65.34377,-62.88618,102.3807,-0.9966946,-0.0893622,-0.2331196,44.95495,-20.73969,-28.83632,1002.186
5.394200802,-64.91468,-61.97722,99.56392,-0.9567888,-0.124551,-0.2386999,44.95495,-20.73969,-28.83632,1002.186
5.399257183,-64.4243,-61.91663,96.01229,-0.9237553,-0.1540805,-0.2407202,44.95495,-20.73969,-28.83632,1002.186
5.401784420,-64.4856,-61.73484,94.114,-0.9030704,-0.1669004,-0.236454,44.95495,-20.73969,-28.83632,1002.186
5.406839371,-66.87621,-61.00767,90.4399,-0.9078055,-0.155835,-0.201179,44.95495,-20.73969,-28.83632,1002.186
5.411894798,-70.98314,-61.37125,86.70456,-1.007884,-0.1267706,-0.2837549,44.95495,-20.73969,-28.83632,1002.186
5.416950703,-76.86771,-59.43216,82.41811,-0.7476698,-0.2109726,-0.1557399,44.95495,-20.73969,-28.83632,1002.186
5.422006130,-83.54914,-57.25067,78.43784,-0.7357646,-0.2211087,-0.146535,44.95495,-20.73969,-28.83632,1002.186
5.427061558,-90.65966,-53.00888,74.21262,-0.7390998,-0.1985094,-0.1650793,44.95495,-20.73969,-28.83632,1002.185
