Time (s),Gyroscope X (deg/s),Gyroscope Y (deg/s),Gyroscope Z (deg/s),Accelerometer X (g),Accelerometer Y (g),Accelerometer Z (g),Magnetometer X (uT),Magnetometer Y (uT),Magnetometer Z (uT),Barometer (hPa)
-0.001448631,0.5394562,0.6477599,0.2030114,0.9566109,0.02477693,0.01702475,-49.1813,-17.27703,-26.37003,1002.229
0.003606319,0.7233489,0.7689536,0.08054138,0.9609772,0.02681112,0.01655642,-49.1813,-17.27703,-26.37003,1002.227
0.008660793,0.845944,0.6477599,0.01930635,0.9643824,0.02784741,0.01655057,-49.1813,-17.27703,-26.37003,1002.227
0.013716221,0.9072416,0.2235818,0.2030114,0.9697368,0.0265449,0.01263682,-49.1813,-17.27703,-26.37003,1002.227
0.018770695,1.091134,0.4053724,0.2030114,0.9657776,0.03228698,0.01425644,-49.1813,-17.27703,-26.37003,1002.227
0.023825169,1.152432,0.3447755,0.1417764,0.966661,0.03914207,0.01250729,-49.1813,-17.27703,-26.37003,1002.227
0.028880119,1.091134,0.7083567,0.08054138,0.9612105,0.04395486,0.009329852,-49.1813,-17.27703,-26.37003,1002.227
0.033935070,1.029837,0.6477599,0.08054138,0.9581907,0.05359165,0.01199708,-49.1813,-17.27703,-26.37003,1002.227
0.038990021,1.029837,0.7689536,0.01930635,0.9533112,0.05540371,0.01496178,-49.1813,-17.27703,-26.37003,1002.227
0.044044495,0.6007537,0.7689536,0.08054138,0.9469194,0.06108622,0.01756039,-49.1813,-17.27703,-26.37003,1002.225
0.049098969,0.4168611,0.7083567,-0.1643987,0.9533432,0.0591531,0.02463184,-50.29318,-17.30614,-26.36123,1002.225
0.054154396,0.2942659,0.7083567,-0.04192868,0.9572833,0.05344633,0.02061953,-50.29318,-17.30614,-26.36123,1002.225
0.059213161,0.3555635,0.9507443,-0.1643987,0.9666414,0.05298435,0.03057315,-50.29318,-17.30614,-26.36123,1002.225
0.064263821,0.2329683,0.8295505,0.01930635,0.962276,0.04856794,0.02762965,-50.29318,-17.30614,-26.36123,1002.225
0.069318771,0.1103732,0.9507443,-0.1031637,0.9661647,0.04771743,0.02422,-50.29318,-17.30614,-26.36123,1002.225
0.074377537,0.2329683,0.8295505,0.01930635,0.965234,0.04666302,0.02851078,-50.29318,-17.30614,-26.36123,1002.225
0.079428196,-0.01222191,0.7083567,0.08054138,0.9593724,0.04275512,0.02224309,-50.29318,-17.30614,-26.36123,1002.225
0.084482670,-0.07351948,0.9507443,0.3254815,0.952497,0.04508779,0.02045235,-50.29318,-17.30614,-26.36123,1002.227
0.089538097,-0.5639,0.7689536,0.3254815,0.9564667,0.04170673,0.02368017,-50.29318,-17.30614,-26.36123,1002.227
0.094593048,-0.8090903,0.8901474,0.2030114,0.9613117,0.04424341,0.02274133,-50.29318,-17.30614,-26.36123,1002.227
0.099647522,-0.992983,0.6477599,0.1417764,0.9599451,0.03498996,0.02156157,-49.54327,-17.65678,-26.36647,1002.227
0.104702950,-1.115578,0.7689536,0.1417764,0.9683189,0.03262098,0.027646,-49.54327,-17.65678,-26.36647,1002.227
0.109757423,-0.992983,0.7689536,0.1417764,0.9683286,0.03307906,0.02957257,-49.54327,-17.65678,-26.36647,1002.227
0.114811897,-0.992983,0.7689536,0.2642465,0.9669299,0.02436139,0.02505545,-49.54327,-17.65678,-26.36647,1002.227
0.119866848,-0.8090903,0.8901474,0.4479516,0.9684898,0.02087837,0.03213349,-49.54327,-17.65678,-26.36647,1002.227
0.124921799,-0.6864951,1.193132,0.3867165,0.96844,0.02525536,0.0322452,-49.54327,-17.65678,-26.36647,1002.225
0.129976749,-0.4413049,1.374923,0.5704216,0.9660732,0.0226935,0.03794751,-49.54327,-17.65678,-26.36647,1002.225
0.135031223,-0.3187097,1.61731,0.6928917,0.9679302,0.02814308,0.03375967,-49.54327,-17.65678,-26.36647,1002.225
0.140085697,-0.01222191,1.61731,0.5091866,0.9668677,0.03637842,0.03493652,-49.54327,-17.65678,-26.36647,1002.225
0.145141125,-0.01222191,1.738504,0.7541267,0.9678686,0.03158978,0.03097533,-49.53051,-18.02616,-25.98093,1002.225
0.150195599,-0.3800073,1.677907,0.5704216,0.9648751,0.04022566,0.03553188,-49.53051,-18.02616,-25.98093,1002.225
0.155250549,-0.5026025,2.041488,0.6928917,0.9623401,0.04654491,0.03284392,-49.53051,-18.02616,-25.98093,1002.225
0.160305023,-1.422066,1.859697,0.7541267,0.9587921,0.05577105,0.02976066,-49.53051,-18.02616,-25.98093,1002.225
0.165360451,-2.218934,1.677907,0.6316566,0.9533483,0.05771529,0.02315899,-49.53051,-18.02616,-25.98093,1002.227
0.170414925,-2.893208,1.556713,0.4479516,0.953738,0.06504762,0.02142663,-49.53051,-18.02616,-25.98093,1002.227
0.175469399,-3.812671,1.374923,0.3867165,0.9537149,0.06937517,0.02488811,-49.53051,-18.02616,-25.98093,1002.227
0.180524826,-4.119159,1.374923,0.3867165,0.9518032,0.06545521,0.0243278,-49.53051,-18.02616,-25.98093,1002.227
0.185579300,-4.793432,1.61731,0.3867165,0.9523033,0.06734606,0.02867991,-49.53051,-18.02616,-25.98093,1002.227
0.190634251,-5.34511,1.799101,0.3867165,0.961063,0.06707984,0.02476031,-49.53051,-18.02616,-25.98093,1002.227
0.195688725,-5.712895,1.920294,0.5704216,0.9592881,0.05671748,0.03217379,-49.53939,-18.0276,-26.81491,1002.227
0.200744152,-6.019383,1.859697,0.6928917,0.9631846,0.05680433,0.03118166,-49.53939,-18.0276,-26.81491,1002.227
0.205798626,-6.571062,2.162682,0.9378318,0.9559054,0.05468735,0.03359044,-49.53939,-18.0276,-26.81491,1002.233
0.208325863,-6.632359,2.102085,1.060302,0.9594008,0.04746304,0.03289504,-49.53939,-18.0276,-26.81491,1002.233
0.213380814,-7.184037,2.223279,1.121537,0.9536175,0.04388608,0.03716759,-49.53939,-18.0276,-26.81491,1002.233
0.218435764,-7.245335,2.708054,1.305242,0.9575505,0.03914491,0.03365864,-49.53939,-18.0276,-26.81491,1002.233
0.223490715,-7.429227,2.223279,1.366477,0.9561894,0.02940513,0.03246647,-49.53939,-18.0276,-26.81491,1002.233
0.228545189,-7.61312,2.283876,1.488947,0.9592259,0.02354598,0.03755515,-49.53939,-18.0276,-26.81491,1002.233
0.233599663,-7.000144,2.344472,1.550182,0.9670829,0.02074515,0.03932471,-49.53939,-18.0276,-26.81491,1002.233
0.238655090,-6.325871,2.344472,1.427712,0.9672711,0.004209857,0.0389027,-49.53939,-18.0276,-26.81491,1002.233
0.243709564,-5.467705,2.708054,1.550182,0.9687393,0.005181535,0.04082853,-49.94077,-16.92793,-27.26292,1002.233
0.248764515,-4.732134,3.011038,1.611417,0.9713314,-0.006480315,0.04290141,-49.94077,-16.92793,-27.26292,1002.233
0.253819943,-4.057861,3.253426,1.550182,0.9810728,-0.006263218,0.04042108,-49.94077,-16.92793,-27.26292,1002.233
0.258874416,-3.383588,3.435216,1.733887,0.9800664,-0.006224887,0.03660154,-49.94077,-16.92793,-27.26292,1002.233
0.263928890,-3.0771,3.617007,1.733887,0.9819846,6.315258E-05,0.04153075,-49.94077,-16.92793,-27.26292,1002.233
0.268983841,-3.138398,3.980588,1.672652,0.9804839,0.003912415,0.04260026,-49.94077,-16.92793,-27.26292,1002.233
0.274038792,-3.32229,4.344169,1.795122,0.9774308,0.01123057,0.03754883,-49.94077,-16.92793,-27.26292,1002.233
0.279093742,-3.690076,4.768348,1.550182,0.9777859,0.02291163,0.03784233,-49.94077,-16.92793,-27.26292,1002.233
0.284148216,-4.364349,5.071332,1.550182,0.9736935,0.03937421,0.0382994,-49.94077,-16.92793,-27.26292,1002.233
0.289202690,-5.34511,5.556107,1.427712,0.9692788,0.04552291,0.04472119,-49.94077,-16.92793,-27.26292,1002.233
0.294258118,-6.693656,5.313719,1.305242,0.9616843,0.06160506,0.03371162,-49.56148,-17.28828,-27.26523,1002.233
0.299312592,-8.042203,5.859091,1.244007,0.9576361,0.074177,0.0340694,-49.56148,-17.28828,-27.26523,1002.233
0.304367542,-10.06502,5.798494,0.9378318,0.9506006,0.08632813,0.02630591,-49.56148,-17.28828,-27.26523,1002.233
0.309422493,-12.02654,6.040882,1.121537,0.9485765,0.0926141,0.02648479,-49.56148,-17.28828,-27.26523,1002.233
0.314477444,-13.62028,6.101479,0.8765967,0.936733,0.09930351,0.0200642,-49.56148,-17.28828,-27.26523,1002.233
0.319531918,-14.60104,6.101479,0.9990668,0.9459813,0.1009493,0.0190611,-49.56148,-17.28828,-27.26523,1002.233
0.324586392,-15.27532,6.040882,0.6928917,0.9470228,0.09227709,0.01452207,-49.56148,-17.28828,-27.26523,1002.233
0.329641819,-15.7657,5.798494,0.7541267,0.9563859,0.08514067,0.0152097,-49.56148,-17.28828,-27.26523,1002.233
0.334696293,-16.68516,5.798494,0.8765967,0.9550219,0.07207425,0.008666731,-49.56148,-17.28828,-27.26523,1002.233
0.339751244,-17.60462,5.374316,1.182772,0.9628793,0.06593974,0.005564027,-49.56148,-17.28828,-27.26523,1002.233
0.344805718,-18.2176,4.707751,1.244007,0.9618762,0.06501953,0.0007625883,-49.56626,-17.28905,-27.7143,1002.233
0.349861145,-18.40149,4.101782,1.366477,0.9615736,0.04609999,-0.003545407,-49.56626,-17.28905,-27.7143,1002.233
0.354915619,-18.46279,3.617007,1.182772,0.9626074,0.03744189,-0.009041509,-49.56626,-17.28905,-27.7143,1002.233
0.359970093,-18.58538,2.647457,1.488947,0.9544721,0.02508669,-0.006406084,-49.56626,-17.28905,-27.7143,1002.233
0.365025520,-18.95317,2.041488,1.672652,0.9592902,0.03195798,-0.004361985,-49.56626,-17.28905,-27.7143,1002.233
0.370080471,-19.38225,1.738504,1.733887,0.9645862,0.0374288,-0.005709272,-49.56626,-17.28905,-27.7143,1002.231
0.375134945,-20.05653,1.253729,1.550182,0.9674947,0.04085235,-0.003255991,-49.56626,-17.28905,-27.7143,1002.231
0.380189419,-20.97599,1.132535,1.488947,0.965563,0.03934992,-0.002797159,-49.56626,-17.28905,-27.7143,1002.231
0.385244846,-21.65026,1.071938,1.060302,0.9582615,0.03917827,-0.0003387341,-49.56626,-17.28905,-27.7143,1002.231
0.390299320,-22.38583,1.193132,0.9378318,0.9518628,0.04154123,-0.003569469,-49.56626,-17.28905,-27.7143,1002.231
0.395354271,-22.69232,1.071938,0.9378318,0.9434417,0.04447423,-0.01490541,-49.58767,-16.54962,-28.10047,1002.231
0.400408745,-22.63103,1.071938,0.6316566,0.9429637,0.0458747,-0.01151402,-49.58767,-16.54962,-28.10047,1002.231
0.405464172,-22.56973,1.071938,0.5704216,0.9498317,0.04450763,-0.009219923,-49.58767,-16.54962,-28.10047,1002.231
0.410518646,-22.20194,1.071938,0.2030114,0.9523556,0.03916103,-0.00650714,-49.58767,-16.54962,-28.10047,1002.231
0.415573120,-21.58897,1.314326,0.01930635,0.9523393,0.03633486,-0.01280261,-49.58767,-16.54962,-28.10047,1002.231
0.420628548,-20.60821,1.677907,-0.1643987,0.9582594,0.03346943,-0.009101364,-49.58767,-16.54962,-28.10047,1002.231
0.425683022,-19.38225,1.980891,-0.1643987,0.9618648,0.01985218,-0.005172738,-49.58767,-16.54962,-28.10047,1002.231
0.430737972,-18.09501,2.283876,-0.1643987,0.9687697,0.01460858,-0.003935011,-49.58767,-16.54962,-28.10047,1002.231
0.435792446,-16.56256,2.58686,0.2030114,0.968943,0.004289646,0.002982405,-49.58767,-16.54962,-28.10047,1002.231
0.438320637,-15.94959,2.829247,0.01930635,0.9778306,-0.005259269,0.001698203,-49.58767,-16.54962,-28.10047,1002.231
0.443375111,-14.53975,3.192829,0.3254815,0.9755431,-0.01510906,0.006735791,-49.58767,-16.54962,-28.10047,1002.231
0.448429585,-13.74288,3.738201,0.3867165,0.9781331,-0.01676983,0.02342547,-49.58767,-16.54962,-28.10047,1002.231
0.453484535,-12.88471,4.041185,0.6316566,0.9825237,-0.01620877,0.02387698,-49.58767,-16.54962,-28.10047,1002.234
0.458539486,-12.51692,4.344169,0.8153617,0.980509,-0.005179562,0.03231514,-49.58767,-16.54962,-28.10047,1002.234
0.463594437,-12.33303,4.52596,0.8765967,0.978821,0.01282278,0.03039484,-49.58767,-16.54962,-28.10047,1002.234
0.468648911,-12.76212,4.768348,0.9990668,0.9792483,0.02341816,0.03832013,-49.58767,-16.54962,-28.10047,1002.234
0.473703385,-13.55898,5.131929,0.9990668,0.9702262,0.04511832,0.04039317,-49.58767,-16.54962,-28.10047,1002.234
0.478758812,-14.78493,4.828944,0.9378318,0.9662057,0.06049523,0.04848203,-49.58767,-16.54962,-28.10047,1002.234
0.483813286,-16.43997,5.071332,1.060302,0.9635304,0.07850058,0.04513489,-49.58767,-16.54962,-28.10047,1002.234
0.488868237,-17.97241,5.010735,0.9990668,0.9502092,0.08994835,0.04411549,-49.60499,-15.80953,-28.10172,1002.234
0.493923187,-20.05653,5.131929,0.9378318,0.9432465,0.1029168,0.04690466,-49.60499,-15.80953,-28.10172,1002.234
0.498978138,-22.07935,5.131929,0.8765967,0.9471264,0.1044626,0.04594976,-49.60499,-15.80953,-28.10172,1002.234
0.504032612,-23.73438,5.192526,0.9378318,0.9467523,0.09805349,0.05105671,-49.60499,-15.80953,-28.10172,1002.234
0.509087086,-25.51201,5.434913,1.060302,0.9501919,0.09474103,0.04902499,-49.60499,-15.80953,-28.10172,1002.234
0.514142513,-26.61537,5.253122,1.060302,0.9561826,0.08174739,0.04672312,-49.60499,-15.80953,-28.10172,1002.234
0.519197464,-27.65742,5.434913,1.182772,0.9543031,0.07729166,0.04950017,-49.60499,-15.80953,-28.10172,1002.234
0.524251938,-27.71872,5.374316,1.550182,0.9557848,0.07347772,0.04603796,-49.60499,-15.80953,-28.10172,1002.234
0.529306412,-27.59613,5.798494,1.733887,0.9509629,0.06661349,0.04351533,-49.60499,-15.80953,-28.10172,1002.234
0.534361839,-27.47353,5.919688,1.978827,0.9510051,0.06225063,0.04244654,-49.60499,-15.80953,-28.10172,1002.232
0.539416313,-27.47353,6.222672,1.978827,0.9426435,0.06650136,0.0407186,-49.61365,-15.43948,-28.10234,1002.232
0.544471264,-27.59613,6.040882,2.101297,0.9459626,0.071506,0.03554812,-49.61365,-15.43948,-28.10234,1002.232
0.549526215,-28.02521,6.525657,1.917592,0.9532121,0.07558244,0.03223192,-49.61365,-15.43948,-28.10234,1002.232
0.554581165,-28.57689,6.707448,1.795122,0.9546973,0.07604659,0.03558095,-49.61365,-15.43948,-28.10234,1002.232
0.559635639,-28.88338,7.010432,1.856357,0.9556155,0.07950442,0.03326638,-49.61365,-15.43948,-28.10234,1002.232
0.564690113,-29.61895,7.616401,1.917592,0.9586092,0.07610518,0.03650297,-49.61365,-15.43948,-28.10234,1002.232
0.569745541,-29.68024,8.161772,1.795122,0.9587192,0.06971222,0.04112699,-49.61365,-15.43948,-28.10234,1002.232
0.574800014,-29.43505,8.222369,1.917592,0.9526249,0.05056354,0.04500673,-49.61365,-15.43948,-28.10234,1002.23
0.579854965,-29.80284,9.191919,2.285002,0.9522873,0.03504126,0.04126416,-49.61365,-15.43948,-28.10234,1002.23
0.584909439,-29.98673,8.767741,2.468708,0.9562774,0.03019414,0.04493328,-49.61365,-15.43948,-28.10234,1002.23
0.589964867,-30.23192,8.767741,2.897353,0.9593138,0.01909835,0.04222882,-48.51997,-15.04188,-29.00991,1002.23
0.595019340,-29.55765,8.58595,2.529943,0.9598575,0.009958954,0.03576761,-48.51997,-15.04188,-29.00991,1002.23
0.600073814,-28.08651,8.282966,2.897353,0.9682516,0.0008872787,0.0345002,-48.51997,-15.04188,-29.00991,1002.23
0.605129242,-26.55407,8.101175,3.081058,0.9692705,-0.001554459,0.03634353,-48.51997,-15.04188,-29.00991,1002.23
0.610186100,-25.63461,7.43461,3.203528,0.9741443,0.001404981,0.03972395,-48.51997,-15.04188,-29.00991,1002.23
0.615238666,-25.32812,7.071029,3.693408,0.9699742,-0.01099052,0.04998092,-48.51997,-15.04188,-29.00991,1002.228
0.620293140,-25.6959,6.586254,3.815878,0.964533,0.002850672,0.06139546,-48.51997,-15.04188,-29.00991,1002.228
0.625348568,-26.73796,6.646851,3.877113,0.9528992,-0.0003702193,0.06716862,-48.51997,-15.04188,-29.00991,1002.228
0.630403042,-28.02521,6.040882,4.060818,0.9450469,0.009563129,0.0765916,-48.51997,-15.04188,-29.00991,1002.228
0.635457992,-29.86414,5.253122,3.999583,0.9365469,0.02073553,0.06738083,-48.51997,-15.04188,-29.00991,1002.228
0.640512466,-31.51917,4.828944,3.693408,0.9404802,0.02741911,0.0809186,-49.64939,-14.70237,-29.83572,1002.228
0.645567894,-32.80642,4.101782,3.325998,0.9474041,0.02737683,0.09234217,-49.64939,-14.70237,-29.83572,1002.228
0.650622368,-33.48069,3.55641,3.019823,0.955132,0.03624092,0.09488815,-49.64939,-14.70237,-29.83572,1002.228
0.655676842,-33.97107,3.253426,2.591178,0.9631001,0.02990156,0.1056631,-49.64939,-14.70237,-29.83572,1002.228
0.660731792,-33.90977,3.011038,2.223768,0.9693839,0.0310842,0.09940991,-49.64939,-14.70237,-29.83572,1002.228
0.665786743,-33.66459,2.950441,1.611417,0.9724419,0.02661341,0.1093212,-49.64939,-14.70237,-29.83572,1002.228
0.668313980,-33.66459,3.071635,1.488947,0.9729755,0.0213011,0.1072661,-49.64939,-14.70237,-29.83572,1002.228
0.673368931,-33.48069,3.374619,1.305242,0.9663005,0.01421687,0.117203,-49.64939,-14.70237,-29.83572,1002.228
0.678423405,-32.74512,3.617007,0.9990668,0.9767606,-0.001218466,0.1210206,-49.64939,-14.70237,-29.83572,1002.228
0.683478832,-31.76436,4.041185,1.060302,0.9709969,-0.01340108,0.1150205,-49.64939,-14.70237,-29.83572,1002.228
0.688533306,-30.47711,4.101782,1.182772,0.9662325,-0.01941978,0.1211363,-49.28354,-14.69345,-30.28772,1002.228
0.693588257,-29.12857,4.162379,1.060302,0.9578924,-0.02425396,0.1086447,-49.28354,-14.69345,-30.28772,1002.228
0.698643207,-27.78002,3.919991,1.182772,0.9517925,-0.04291631,0.1125369,-49.28354,-14.69345,-30.28772,1002.227
0.703698158,-26.06369,3.617007,1.366477,0.9478855,-0.05060081,0.1008884,-49.28354,-14.69345,-30.28772,1002.227
0.708752632,-24.28606,3.011038,1.488947,0.953278,-0.05197395,0.1017601,-49.28354,-14.69345,-30.28772,1002.227
0.713807106,-22.32454,2.889844,1.733887,0.9547188,-0.05809242,0.08962212,-49.28354,-14.69345,-30.28772,1002.227
0.718862534,-20.36301,2.708054,2.101297,0.9615245,-0.05791573,0.086211,-49.28354,-14.69345,-30.28772,1002.227
0.723917007,-18.58538,2.950441,2.468708,0.9619849,-0.05547498,0.08626869,-49.28354,-14.69345,-30.28772,1002.227
0.728971958,-17.54333,3.132232,2.713648,0.970327,-0.06587851,0.07635035,-49.28354,-14.69345,-30.28772,1002.227
0.734026432,-16.86905,3.253426,3.019823,0.9712086,-0.05854416,0.07509215,-49.28354,-14.69345,-30.28772,1002.227
0.739081860,-16.99165,3.253426,3.203528,0.9687255,-0.05612968,0.07326197,-49.30563,-13.95413,-30.73804,1002.225
0.744138241,-17.48203,3.738201,3.142293,0.9608341,-0.04374348,0.08131141,-49.30563,-13.95413,-30.73804,1002.225
0.749190807,-18.2176,3.738201,3.142293,0.9528716,-0.03265383,0.07831725,-49.30563,-13.95413,-30.73804,1002.225
0.754246235,-19.56615,3.495813,2.836118,0.9429814,-0.017837,0.08405359,-49.30563,-13.95413,-30.73804,1002.225
0.759300709,-20.8534,3.253426,2.162533,0.9408432,0.004370782,0.09325577,-49.30563,-13.95413,-30.73804,1002.225
0.764355659,-21.77286,3.314023,1.733887,0.9379323,0.0047602,0.09616569,-49.30563,-13.95413,-30.73804,1002.225
0.769410133,-22.56973,3.617007,1.305242,0.9491711,0.01684501,0.1155167,-49.30563,-13.95413,-30.73804,1002.225
0.774465561,-22.93751,3.617007,0.8765967,0.9501676,0.02063376,0.1237424,-49.30563,-13.95413,-30.73804,1002.225
0.779520035,-22.69232,4.041185,0.5704216,0.9468364,0.02326916,0.1386822,-49.30563,-13.95413,-30.73804,1002.227
0.784574509,-22.07935,4.101782,0.2642465,0.9444141,0.02033398,0.1367155,-48.58025,-13.2563,-30.74505,1002.227
0.789629459,-22.26324,4.222976,0.08054138,0.9506505,0.02208066,0.1252109,-48.58025,-13.2563,-30.74505,1002.227
0.794684887,-22.32454,3.617007,0.2030114,0.9521903,0.02101518,0.1333081,-48.58025,-13.2563,-30.74505,1002.227
0.799739361,-22.56973,3.738201,0.3254815,0.9599212,0.01749598,0.1178254,-48.58025,-13.2563,-30.74505,1002.227
0.804793835,-22.44713,3.980588,0.5704216,0.9639545,0.005903777,0.1170139,-48.58025,-13.2563,-30.74505,1002.227
0.809849262,-22.14064,3.980588,0.9990668,0.9640168,-0.0008766205,0.114926,-48.58025,-13.2563,-30.74505,1002.227
0.814903736,-21.34377,4.344169,1.733887,0.9693077,0.006032011,0.1150516,-48.58025,-13.2563,-30.74505,1002.227
0.819958687,-20.91469,4.647154,2.529943,0.9630022,-0.001775636,0.108689,-48.58025,-13.2563,-30.74505,1002.225
0.825013161,-20.24042,5.071332,3.081058,0.956149,-0.006624929,0.09905542,-48.58025,-13.2563,-30.74505,1002.225
0.830068588,-19.56615,5.374316,3.509703,0.9566467,-0.006157764,0.1009776,-48.58025,-13.2563,-30.74505,1002.225
0.835123062,-18.95317,5.798494,3.999583,0.9556668,-0.006168879,0.1005078,-48.96432,-12.89673,-31.19181,1002.225
0.840177536,-18.52409,5.980285,4.489464,0.9556187,-0.002271155,0.1001286,-48.96432,-12.89673,-31.19181,1002.225
0.845232487,-18.03371,6.162076,4.856874,0.9629056,-0.0001683059,0.09867688,-48.96432,-12.89673,-31.19181,1002.225
0.850287437,-18.09501,6.586254,5.040579,0.9676839,0.007252887,0.09642656,-48.96432,-12.89673,-31.19181,1002.225
0.855342388,-17.48203,6.646851,4.856874,0.9651321,0.0193163,0.1001085,-48.96432,-12.89673,-31.19181,1002.225
0.860396862,-17.05295,6.707448,4.918109,0.959156,0.03037875,0.1014037,-48.96432,-12.89673,-31.19181,1002.225
0.865452290,-16.68516,6.768044,4.673169,0.9483653,0.02837474,0.09187968,-48.96432,-12.89673,-31.19181,1002.225
0.870506763,-16.93035,6.404463,4.795639,0.946379,0.03363859,0.09538351,-48.96432,-12.89673,-31.19181,1002.225
0.875561237,-17.54333,5.49551,4.918109,0.936225,0.02184639,0.09039228,-48.96432,-12.89673,-31.19181,1002.225
0.880616188,-18.46279,4.222976,4.918109,0.9371886,0.01903133,0.08456658,-48.96432,-12.89673,-31.19181,1002.225
0.885671139,-19.38225,2.889844,5.101814,0.9327329,0.01763887,0.07451949,-48.97797,-12.89894,-32.47486,1002.225
0.890726089,-19.75004,1.738504,5.040579,0.9423311,0.02193028,0.05969645,-48.97797,-12.89894,-32.47486,1002.225
0.895780563,-19.62744,0.6477599,4.979344,0.9463153,0.01138138,0.05412441,-48.97797,-12.89894,-32.47486,1002.225
0.898307800,-19.44355,0.04179113,4.856874,0.9506081,0.015932,0.04797568,-48.97797,-12.89894,-32.47486,1002.225
0.903363228,-17.60462,-0.3217901,4.428228,0.9507569,0.000898079,0.04471968,-48.97797,-12.89894,-32.47486,1002.225
0.908417702,-15.52051,-0.5641776,4.366993,0.9526429,0.002485256,0.03851839,-48.97797,-12.89894,-32.47486,1002.225
0.913472652,-13.62028,-0.7459683,3.877113,0.9659956,-0.006164595,0.04774741,-48.97797,-12.89894,-32.47486,1002.225
0.918527126,-12.82341,-0.6853714,3.387233,0.9607047,-0.01307322,0.04762184,-48.97797,-12.89894,-32.47486,1002.225
0.923582554,-13.1299,-0.6853714,2.897353,0.9577707,-0.00835626,0.05399325,-48.97797,-12.89894,-32.47486,1002.225
0.928637028,-13.62028,-0.6247745,2.285002,0.9534514,-0.01190596,0.05825266,-48.97797,-12.89894,-32.47486,1002.225
0.933691502,-13.92677,-0.8065651,1.917592,0.9456912,-0.005475827,0.0742883,-48.61101,-12.14694,-31.196,1002.225
0.938746929,-14.04936,-0.7459683,1.305242,0.9462945,-0.008060864,0.08522823,-48.61101,-12.14694,-31.196,1002.225
0.943801403,-14.29455,-0.6853714,0.8765967,0.9430285,-0.01411587,0.0956378,-48.61101,-12.14694,-31.196,1002.224
0.948856354,-14.53975,-0.7459683,0.6316566,0.9304914,-0.02177431,0.1041792,-48.61101,-12.14694,-31.196,1002.224
0.953910828,-14.78493,-1.109549,0.1417764,0.9397474,-0.01490599,0.1119264,-48.61101,-12.14694,-31.196,1002.224
0.958966255,-15.27532,-1.048953,-0.2256338,0.9432248,-0.01924054,0.1132196,-48.61101,-12.14694,-31.196,1002.224
0.964020729,-15.33661,-1.412534,-0.3481038,0.9487655,-0.02707728,0.1235006,-48.61101,-12.14694,-31.196,1002.224
0.969075680,-15.09142,-1.351937,-0.654279,0.9517656,-0.03334507,0.123313,-48.61101,-12.14694,-31.196,1002.224
0.974130154,-14.47845,-1.351937,-0.8379841,0.9523335,-0.04395759,0.1177716,-48.61101,-12.14694,-31.196,1002.224
0.979185581,-13.68158,-1.29134,-1.082924,0.956286,-0.04254596,0.1259089,-48.61101,-12.14694,-31.196,1002.224
0.984240055,-12.70082,-1.412534,-1.082924,0.9591242,-0.03851601,0.1202395,-48.99439,-11.78726,-31.5786,1002.224
0.989294529,-12.14914,-1.29134,-1.205394,0.9647632,-0.04843934,0.1400416,-48.99439,-11.78726,-31.5786,1002.224
0.994349957,-11.47487,-1.29134,-1.205394,0.9761944,-0.06146722,0.1467838,-48.99439,-11.78726,-31.5786,1002.224
0.999404430,-11.10708,-1.109549,-1.205394,0.9812093,-0.06829093,0.1537442,-48.99439,-11.78726,-31.5786,1002.224
1.004459381,-10.6167,-1.109549,-0.9604541,0.9794338,-0.0753196,0.16603,-48.99439,-11.78726,-31.5786,1002.224
1.009513855,-10.37151,-0.5035807,-0.5930439,0.9741592,-0.07940206,0.1721999,-48.99439,-11.78726,-31.5786,1002.224
1.014569283,-10.6167,-0.5035807,-0.5318089,0.9697472,-0.07611485,0.1747189,-48.99439,-11.78726,-31.5786,1002.224
1.019623756,-11.04578,-0.867162,-0.4093389,0.9697449,-0.07230189,0.1800821,-48.99439,-11.78726,-31.5786,1002.224
1.024678230,-11.78135,-1.048953,-0.4705739,0.9735754,-0.06542759,0.1806994,-48.99439,-11.78726,-31.5786,1002.224
1.029733658,-12.51692,-1.351937,-0.4093389,0.9741046,-0.06739915,0.183038,-48.99439,-11.78726,-31.5786,1002.224
1.034788132,-12.82341,-1.412534,-0.3481038,0.9775403,-0.06641938,0.1868605,-48.99439,-11.78726,-31.5786,1002.224
1.039843082,-12.51692,-0.867162,-0.3481038,0.9774566,-0.06102733,0.1841258,-48.99439,-11.78726,-31.5786,1002.224
1.044897556,-11.90395,-0.6247745,-0.2256338,0.9803795,-0.06477164,0.1777792,-48.99439,-11.78726,-31.5786,1002.224
1.049952984,-10.92319,-0.01880575,0.08054138,0.9769156,-0.05998606,0.1788911,-48.99439,-11.78726,-31.5786,1002.224
1.055007458,-9.574642,0.3447755,0.2642465,0.9779106,-0.06523984,0.1734819,-48.99439,-11.78726,-31.5786,1002.224
1.060061932,-8.1035,0.7083567,0.6316566,0.9739911,-0.0652843,0.1716028,-48.99439,-11.78726,-31.5786,1002.224
1.065116882,-6.816252,0.7689536,0.8765967,0.9695725,-0.06436518,0.1697529,-48.99439,-11.78726,-31.5786,1002.224
1.070172310,-5.774193,1.011341,0.8153617,0.9584004,-0.07181269,0.1658392,-48.99439,-11.78726,-31.5786,1002.228
1.075226784,-5.222515,0.9507443,0.9990668,0.9459924,-0.06070594,0.1561849,-48.99439,-11.78726,-31.5786,1002.228
1.080281258,-4.977325,0.1629849,0.9378318,0.9391761,-0.06324365,0.1547486,-48.64108,-11.03746,-31.58279,1002.228
1.085336685,-5.09992,-0.1399995,0.6928917,0.9307373,-0.06170607,0.1390686,-48.64108,-11.03746,-31.58279,1002.228
1.090391159,-4.732134,-0.6247745,0.8153617,0.9275222,-0.04932682,0.1207422,-48.64108,-11.03746,-31.58279,1002.228
1.095446110,-4.364349,-1.29134,0.8765967,0.9290184,-0.06030861,0.1084801,-48.64108,-11.03746,-31.58279,1002.228
1.100500584,-3.506183,-1.715518,0.6928917,0.9348052,-0.05769018,0.1032257,-48.64108,-11.03746,-31.58279,1002.228
1.105556011,-2.525422,-2.382084,0.8153617,0.948777,-0.04709355,0.09522411,-48.64108,-11.03746,-31.58279,1002.228
1.110610485,-1.176876,-2.26089,0.3867165,0.9609836,-0.05163781,0.08876942,-48.64108,-11.03746,-31.58279,1002.228
1.115664959,0.4168611,-2.26089,0.4479516,0.9754474,-0.04103916,0.081242,-48.64108,-11.03746,-31.58279,1002.228
1.120721817,1.520217,-1.897309,0.2030114,0.983687,-0.03459058,0.08324302,-48.64108,-11.03746,-31.58279,1002.228
1.125774860,2.562276,-1.351937,0.2642465,0.9895654,-0.02690504,0.09726663,-48.64108,-11.03746,-31.58279,1002.228
1.128302574,2.868764,-0.9277589,0.3254815,0.9900752,-0.02979276,0.09575216,-49.39189,-11.05841,-32.47506,1002.228
1.133357048,3.175251,-0.3217901,0.1417764,0.9810448,-0.004744783,0.1017404,-49.39189,-11.05841,-32.47506,1002.228
1.138411522,2.868764,0.102388,0.2030114,0.9736227,0.008637298,0.1088532,-49.39189,-11.05841,-32.47506,1002.228
1.143466949,2.378383,0.2235818,-0.1031637,0.973659,0.009045932,0.1141295,-49.39189,-11.05841,-32.47506,1002.228
1.148521423,1.152432,0.1629849,-0.1031637,0.9612846,0.0234228,0.1136544,-49.39189,-11.05841,-32.47506,1002.226
1.153576374,0.3555635,-0.01880575,-0.3481038,0.9505234,0.02898113,0.1191636,-49.39189,-11.05841,-32.47506,1002.226
1.158631325,-0.134817,-0.5641776,-0.4705739,0.9451399,0.02367277,0.1095046,-49.39189,-11.05841,-32.47506,1002.226
1.163686276,-0.9316854,-0.9277589,-0.4705739,0.9349095,0.02154364,0.1090684,-49.39189,-11.05841,-32.47506,1002.226
1.168740749,-1.422066,-1.533728,-0.4093389,0.9368824,0.01582877,0.1031595,-49.39189,-11.05841,-32.47506,1002.226
1.173795223,-1.238173,-1.957906,-0.3481038,0.9346023,0.0007282204,0.101361,-49.39189,-11.05841,-32.47506,1002.226
1.178850651,-0.7477927,-2.200293,-0.1643987,0.9478553,-0.004404289,0.1030203,-49.39168,-10.68693,-31.6417,1002.226
1.183905125,-0.07351948,-2.685068,0.1417764,0.9503926,-0.0145365,0.100345,-49.39168,-10.68693,-31.6417,1002.226
1.188960075,0.9685391,-2.442681,0.3867165,0.965146,-0.01923311,0.1072675,-49.39168,-10.68693,-31.6417,1002.226
1.194014549,1.765407,-2.200293,0.3867165,0.9700741,-0.02399142,0.1061425,-49.39168,-10.68693,-31.6417,1002.226
1.199069977,2.807466,-1.897309,0.6316566,0.9773309,-0.01564394,0.1101161,-49.39168,-10.68693,-31.6417,1002.226
1.204124451,2.991359,-1.473131,0.8765967,0.9729843,-0.02104715,0.1081048,-49.39168,-10.68693,-31.6417,1002.226
1.209181786,2.623573,-1.109549,1.060302,0.968492,-0.01332644,0.1069072,-49.39168,-10.68693,-31.6417,1002.226
1.214234352,1.765407,-1.048953,0.9378318,0.9685719,-0.01871141,0.1091634,-49.39168,-10.68693,-31.6417,1002.226
1.219288826,0.7233489,-0.8065651,1.060302,0.9563712,-0.01893863,0.1092729,-49.39168,-10.68693,-31.6417,1002.226
1.224343777,-0.5639,-1.230743,1.244007,0.9564266,-0.01856532,0.116942,-49.39168,-10.68693,-31.6417,1002.226
1.229398251,-1.422066,-1.351937,1.182772,0.9496252,-0.02208276,0.1159594,-49.01239,-11.04727,-31.644,1002.224
1.234453678,-1.912446,-1.412534,1.060302,0.9466396,-0.02298282,0.1073472,-49.01239,-11.04727,-31.644,1002.224
1.239508152,-1.851149,-1.836712,0.8765967,0.945254,-0.03220095,0.1037747,-49.01239,-11.04727,-31.644,1002.224
1.244563103,-1.483364,-2.26089,0.7541267,0.9511613,-0.03361446,0.1079917,-49.01239,-11.04727,-31.644,1002.224
1.249617577,-0.8703879,-2.563874,0.5091866,0.9531819,-0.03894188,0.1087947,-49.01239,-11.04727,-31.644,1002.224
1.254675388,-0.1961146,-2.321487,0.6316566,0.9597045,-0.0462953,0.120515,-49.01239,-11.04727,-31.644,1002.224
1.259727478,0.4781586,-2.442681,0.6316566,0.9630518,-0.047056,0.1104102,-49.01239,-11.04727,-31.644,1002.224
1.264781952,1.336325,-2.26089,0.4479516,0.9743575,-0.04937751,0.1169469,-49.01239,-11.04727,-31.644,1002.224
1.269837380,1.888003,-2.26089,0.5091866,0.9781161,-0.04141753,0.1099324,-49.01239,-11.04727,-31.644,1002.224
1.274891853,1.888003,-2.018502,0.5704216,0.9737158,-0.04243668,0.1075543,-49.38302,-11.05698,-31.64107,1002.23
1.279946804,1.642812,-1.836712,0.4479516,0.9604452,-0.03869959,0.1015509,-49.38302,-11.05698,-31.64107,1002.23
1.285001278,1.336325,-1.594324,0.3867165,0.9622775,-0.03272836,0.09498281,-49.38302,-11.05698,-31.64107,1002.23
1.290056706,0.9685391,-1.533728,0.5704216,0.9608225,-0.03420049,0.09400165,-49.38302,-11.05698,-31.64107,1002.23
1.295111179,0.7233489,-1.473131,0.5704216,0.9578637,-0.03943516,0.0824065,-49.38302,-11.05698,-31.64107,1002.23
1.300165653,0.6620513,-1.29134,0.4479516,0.9560133,-0.04775329,0.0831701,-49.38302,-11.05698,-31.64107,1002.23
1.305220604,1.091134,-1.412534,0.2642465,0.9550006,-0.04389494,0.08423524,-49.38302,-11.05698,-31.64107,1002.23
1.310275555,1.888003,-1.533728,0.3867165,0.9573888,-0.04518135,0.0755624,-49.38302,-11.05698,-31.64107,1002.23
1.315330505,2.684871,-1.594324,0.4479516,0.9569583,-0.04434491,0.08420529,-49.38302,-11.05698,-31.64107,1002.228
1.320384979,3.910822,-1.776115,0.3254815,0.9647805,-0.042797,0.08800071,-49.38302,-11.05698,-31.64107,1002.228
1.325440407,4.952881,-1.594324,0.4479516,0.9622446,-0.03409553,0.08872458,-49.00373,-11.41732,-31.64338,1002.228
1.330496311,5.749749,-1.533728,0.2642465,0.9626859,-0.03161946,0.08638957,-49.00373,-11.41732,-31.64338,1002.228
1.335549355,6.362725,-1.473131,0.2642465,0.9627551,-0.0350803,0.09013098,-49.00373,-11.41732,-31.64338,1002.228
1.340604305,6.73051,-1.533728,0.2030114,0.965234,-0.03843918,0.09002219,-49.00373,-11.41732,-31.64338,1002.228
1.345659733,7.159593,-1.473131,0.1417764,0.9636772,-0.03162954,0.08829495,-49.00373,-11.41732,-31.64338,1002.228
1.350714207,7.159593,-1.351937,-0.04192868,0.965123,-0.02966401,0.08881,-49.00373,-11.41732,-31.64338,1002.228
1.355768681,7.220891,-1.230743,-0.04192868,0.9635378,-0.02232566,0.08422394,-49.00373,-11.41732,-31.64338,1002.226
1.358295918,6.9757,-1.412534,-0.1643987,0.9625081,-0.01795978,0.08386589,-49.00373,-11.41732,-31.64338,1002.226
1.363351345,6.914403,-1.533728,-0.1031637,0.9595373,-0.01983956,0.07570738,-49.00373,-11.41732,-31.64338,1002.226
1.368405819,6.791808,-1.473131,-0.1031637,0.9547333,-0.02007172,0.08532196,-49.00373,-11.41732,-31.64338,1002.226
1.373460770,6.424023,-1.715518,-0.2256338,0.953187,-0.01518622,0.08210947,-48.61967,-11.77689,-31.19662,1002.226
1.378515244,6.424023,-1.533728,-0.4705739,0.9614891,-0.01551804,0.08202256,-48.61967,-11.77689,-31.19662,1002.226
1.383570671,6.48532,-1.473131,-0.4093389,0.9683181,-0.01443226,0.0829431,-48.61967,-11.77689,-31.19662,1002.226
1.388625145,6.362725,-1.533728,-0.3481038,0.9678858,-0.0183532,0.0842838,-48.61967,-11.77689,-31.19662,1002.226
1.393679619,6.424023,-1.109549,-0.4093389,0.9609551,-0.0111572,0.08261719,-48.61967,-11.77689,-31.19662,1002.225
1.398735046,6.301427,-1.29134,-0.4705739,0.9616158,-0.01813335,0.09440248,-48.61967,-11.77689,-31.19662,1002.225
1.403789997,5.749749,-1.29134,-0.2868688,0.9547468,-0.01438407,0.09552021,-48.61967,-11.77689,-31.19662,1002.225
1.408844471,5.014178,-1.29134,-0.2868688,0.9533069,-0.01588446,0.0964532,-48.61967,-11.77689,-31.19662,1002.225
1.413898945,4.523798,-1.412534,-0.3481038,0.9504151,-0.01553036,0.1017558,-48.61967,-11.77689,-31.19662,1002.225
1.418954373,3.910822,-1.412534,-0.2256338,0.9572908,-0.01691156,0.105007,-48.61967,-11.77689,-31.19662,1002.225
1.424008846,3.481739,-1.654921,-0.1643987,0.9568716,-0.02656959,0.09949922,-48.99508,-11.78737,-31.64275,1002.225
1.429063797,3.113954,-2.018502,-0.2868688,0.9641006,-0.02626374,0.08794857,-48.99508,-11.78737,-31.64275,1002.225
1.434118271,3.175251,-2.503278,-0.2256338,0.9640926,-0.02720108,0.08553106,-48.99508,-11.78737,-31.64275,1002.223
1.439173699,3.297847,-2.866859,-0.2868688,0.9685194,-0.03146801,0.08346575,-48.99508,-11.78737,-31.64275,1002.223
1.444228172,3.604334,-2.685068,-0.2868688,0.9690168,-0.03195232,0.08392749,-48.99508,-11.78737,-31.64275,1002.223
1.449282646,3.849525,-2.685068,-0.3481038,0.9679622,-0.02801627,0.07972872,-48.99508,-11.78737,-31.64275,1002.223
1.454338074,4.156013,-2.442681,-0.2256338,0.9693007,-0.02251927,0.07171696,-48.99508,-11.78737,-31.64275,1002.223
1.459392548,4.094715,-2.139696,-0.4093389,0.9678941,-0.02170101,0.08036862,-48.99508,-11.78737,-31.64275,1002.223
1.464447498,3.910822,-1.836712,-0.5930439,0.9658205,-0.01532322,0.0743265,-48.99508,-11.78737,-31.64275,1002.223
1.469501972,3.849525,-1.533728,-0.5318089,0.9619086,-0.01538181,0.07340449,-48.99508,-11.78737,-31.64275,1002.223
1.474557400,3.665632,-1.715518,-0.654279,0.9617324,-0.007438032,0.06259671,-48.99439,-11.78726,-31.5786,1002.223
1.479611874,3.849525,-1.412534,-0.715514,0.9608335,-0.009979697,0.06876441,-48.99439,-11.78726,-31.5786,1002.223
1.484666348,3.97212,-1.473131,-0.5318089,0.9564102,-0.006671297,0.06984781,-48.99439,-11.78726,-31.5786,1002.223
1.489721775,4.094715,-1.230743,-0.776749,0.9505469,-0.004863291,0.0718642,-48.99439,-11.78726,-31.5786,1002.223
1.494776249,3.910822,-1.594324,-1.082924,0.9559773,-0.007258544,0.07606077,-48.99439,-11.78726,-31.5786,1002.223
1.499831200,3.481739,-1.654921,-0.9604541,0.9545021,-0.006313145,0.07609874,-48.99439,-11.78726,-31.5786,1002.223
1.504885674,3.297847,-1.654921,-0.8379841,0.9491752,-0.007442299,0.07995043,-48.99439,-11.78726,-31.5786,1002.223
1.509941101,3.175251,-1.715518,-0.715514,0.9585478,-0.01507211,0.08110418,-48.99439,-11.78726,-31.5786,1002.223
1.514995575,2.439681,-1.29134,-0.8379841,0.9584991,-0.01307734,0.07780406,-48.99439,-11.78726,-31.5786,1002.223
1.520050526,2.500978,-1.412534,-0.776749,0.9613957,-0.01058408,0.0773613,-48.98552,-11.78582,-30.74462,1002.227
1.525105000,2.562276,-1.29134,-0.715514,0.9683035,-0.01773769,0.07615668,-48.98552,-11.78582,-30.74462,1002.227
1.530160427,2.807466,-1.109549,-0.5930439,0.9711775,-0.009965419,0.08063583,-48.98552,-11.78582,-30.74462,1002.227
1.535214901,3.297847,-1.048953,-0.4705739,0.9633533,-0.01103406,0.07733136,-48.98552,-11.78582,-30.74462,1002.227
1.540269375,3.359144,-0.8065651,-0.5318089,0.9720981,-0.005083918,0.08075119,-48.98552,-11.78582,-30.74462,1002.227
1.545324803,3.359144,-0.6853714,-0.4093389,0.9687321,-0.008573055,0.08213059,-48.98552,-11.78582,-30.74462,1002.227
1.550382137,3.297847,-0.9277589,-0.4705739,0.9637213,-0.0008049301,0.07710909,-48.98552,-11.78582,-30.74462,1002.227
1.555434227,2.746169,-0.9277589,-0.5318089,0.9638968,-0.01588829,0.07720286,-48.98552,-11.78582,-30.74462,1002.227
1.560488701,3.052656,-0.9277589,-0.4705739,0.9609422,-0.01494191,0.07533982,-48.98552,-11.78582,-30.74462,1002.225
1.565547943,2.868764,-0.9883557,-0.4705739,0.9551405,-0.02181724,0.0723474,-48.98552,-11.78582,-30.74462,1002.225
1.570598602,2.317086,-0.9883557,-0.5318089,0.9506544,-0.01791656,0.06626515,-49.71812,-12.17527,-30.73812,1002.225
1.575653076,2.071895,-1.29134,-0.4705739,0.952572,-0.01353147,0.06827348,-49.71812,-12.17527,-30.73812,1002.225
1.580711841,1.765407,-1.170146,-0.654279,0.9565206,-0.01734942,0.06813913,-49.71812,-12.17527,-30.73812,1002.225
1.585762978,1.397622,-1.533728,-0.715514,0.9580867,-0.02465245,0.07033248,-49.71812,-12.17527,-30.73812,1002.225
1.588290691,1.826705,-1.776115,-0.776749,0.9575159,-0.02165172,0.06419035,-49.71812,-12.17527,-30.73812,1002.225
1.593345165,2.010598,-1.594324,-1.021689,0.9590437,-0.01936232,0.07572417,-49.71812,-12.17527,-30.73812,1002.225
1.598399639,2.255788,-1.654921,-0.9604541,0.959059,-0.01939057,0.07763832,-49.71812,-12.17527,-30.73812,1002.222
1.603455067,2.684871,-1.533728,-0.9604541,0.9610623,-0.01992531,0.08335084,-49.71812,-12.17527,-30.73812,1002.222
1.608509540,2.991359,-1.412534,-0.8992191,0.9604719,-0.01879221,0.07189514,-49.71812,-12.17527,-30.73812,1002.222
1.613564491,3.175251,-0.9883557,-0.8992191,0.9604989,-0.01265354,0.08449848,-49.71812,-12.17527,-30.73812,1002.222
1.618619442,3.175251,-1.109549,-1.082924,0.9609315,-0.01301777,0.07682508,-49.7229,-12.17604,-31.18719,1002.222
1.623674393,3.052656,-1.170146,-0.8992191,0.9618824,-0.009144251,0.0793083,-49.7229,-12.17604,-31.18719,1002.222
1.628728866,2.930061,-0.9883557,-0.776749,0.9676849,-0.0003659676,0.08522159,-49.7229,-12.17604,-31.18719,1002.222
1.633783340,2.562276,-0.9277589,-0.8379841,0.9647317,-0.0008503228,0.08140716,-49.7229,-12.17604,-31.18719,1002.222
1.638838768,2.071895,-0.867162,-0.5930439,0.95641,0.002850504,0.08397365,-49.7229,-12.17604,-31.18719,1002.22
1.643893242,1.888003,-0.9277589,-0.5930439,0.9515967,-0.006410061,0.07899627,-49.7229,-12.17604,-31.18719,1002.22
1.648948193,1.642812,-0.9277589,-0.654279,0.9511014,-0.005453549,0.07950401,-49.7229,-12.17604,-31.18719,1002.22
1.654004574,1.45892,-0.8065651,-0.715514,0.9516569,-0.008426026,0.08373199,-49.7229,-12.17604,-31.18719,1002.22
1.659058094,1.397622,-0.6853714,-0.5318089,0.9586223,-0.01473412,0.0911659,-49.7229,-12.17604,-31.18719,1002.22
1.664112568,1.888003,-0.867162,-0.2868688,0.9615134,-0.01699116,0.0829424,-49.7229,-12.17604,-31.18719,1002.22
1.669167042,2.19449,-0.5641776,-0.3481038,0.9653837,-0.01590341,0.08006093,-48.98552,-11.78582,-30.74462,1002.22
1.674222469,2.378383,-0.5641776,-0.1031637,0.96594,-0.01697294,0.0872098,-48.98552,-11.78582,-30.74462,1002.22
1.679277420,2.930061,-0.6247745,-0.2256338,0.9659303,-0.01743102,0.08528323,-48.98552,-11.78582,-30.74462,1002.22
1.684331894,2.868764,-0.6247745,-0.1031637,0.9668607,-0.01209143,0.08732516,-48.98552,-11.78582,-30.74462,1002.218
1.689386368,2.562276,-0.6247745,-0.2256338,0.9711239,-0.0003447266,0.08806214,-48.98552,-11.78582,-30.74462,1002.218
1.694441795,1.765407,-0.382387,-0.5318089,0.9725195,0.005046322,0.08722845,-48.98552,-11.78582,-30.74462,1002.218
1.699496269,0.845944,-0.5035807,-0.776749,0.9641153,0.01270845,0.08510885,-48.98552,-11.78582,-30.74462,1002.218
1.704551220,-0.3800073,-0.7459683,-0.9604541,0.9602122,0.01025352,0.08173208,-48.98552,-11.78582,-30.74462,1002.218
1.709605694,-1.299471,-0.8065651,-0.776749,0.9509451,0.009594497,0.08180293,-48.98552,-11.78582,-30.74462,1002.218
1.714661121,-2.280232,-1.29134,-1.021689,0.9488901,0.01498549,0.07669308,-48.98552,-11.78582,-30.74462,1002.218
1.719715595,-2.770612,-1.473131,-0.8992191,0.9430594,0.01197256,0.07571413,-48.98552,-11.78582,-30.74462,1002.218
1.724770069,-2.770612,-2.079099,-1.205394,0.9499859,0.003832158,0.07544176,-48.98552,-11.78582,-30.74462,1002.216
1.729825497,-2.157637,-2.018502,-0.9604541,0.9529071,0.005803766,0.07737927,-48.98552,-11.78582,-30.74462,1002.216
1.734879970,-1.422066,-2.018502,-0.8992191,0.961709,0.001174678,0.07239089,-48.98552,-11.78582,-30.74462,1002.216
1.739934921,-0.3187097,-2.139696,-0.9604541,0.9589728,-0.01542221,0.0724737,-48.98552,-11.78582,-30.74462,1002.216
1.744989395,0.7233489,-1.654921,-0.5930439,0.9619979,-0.01602354,0.08391992,-48.98552,-11.78582,-30.74462,1002.216
1.750044823,1.152432,-1.29134,-0.5318089,0.9708167,-0.02116015,0.08035474,-48.98552,-11.78582,-30.74462,1002.216
1.755099297,1.581515,-1.109549,-0.4705739,0.9704335,-0.02612439,0.08645599,-48.98552,-11.78582,-30.74462,1002.216
1.760154724,1.9493,-0.5035807,-0.3481038,0.9733901,-0.02659857,0.0892885,-48.98552,-11.78582,-30.74462,1002.216
1.765209198,2.19449,-0.07940262,-0.1643987,0.9783099,-0.02800905,0.09207868,-48.98552,-11.78582,-30.74462,1002.219
1.770263672,2.255788,-0.1399995,-0.4093389,0.9749368,-0.03481776,0.08762874,-48.99418,-11.41577,-30.74524,1002.219
1.775318623,2.133193,0.3447755,-0.2256338,0.9709735,-0.03002008,0.08730938,-48.99418,-11.41577,-30.74524,1002.219
1.780373096,2.010598,0.4053724,-0.1643987,0.9685613,-0.03154571,0.08872967,-48.99418,-11.41577,-30.74524,1002.219
1.785428524,2.19449,0.3447755,-0.2868688,0.9622263,-0.03739391,0.08145963,-48.99418,-11.41577,-30.74524,1002.219
1.790482998,2.133193,0.3447755,-0.2868688,0.9630842,-0.03192012,0.07440932,-48.99418,-11.41577,-30.74524,1002.219
1.795537949,2.010598,-0.4429839,-0.5318089,0.9518308,-0.03255192,0.07019086,-48.99418,-11.41577,-30.74524,1002.219
1.800592422,2.010598,-0.867162,-0.654279,0.9502619,-0.02762404,0.06410714,-48.99418,-11.41577,-30.74524,1002.219
1.805647850,2.19449,-1.170146,-0.715514,0.9541959,-0.02951078,0.06497951,-48.99418,-11.41577,-30.74524,1002.219
1.810702324,2.010598,-1.533728,-0.8992191,0.953053,-0.01684194,0.06243976,-48.99418,-11.41577,-30.74524,1002.219
1.815756798,2.255788,-1.776115,-1.021689,0.9604548,-0.02352132,0.06267879,-48.9903,-11.78659,-31.19369,1002.219
1.818284035,2.439681,-1.897309,-1.021689,0.9637728,-0.01613447,0.06092015,-48.9903,-11.78659,-31.19369,1002.219
1.823339462,2.562276,-1.897309,-1.266629,0.9622212,-0.005525994,0.0655132,-48.9903,-11.78659,-31.19369,1002.219
1.828393936,3.113954,-1.473131,-0.8992191,0.9666765,-0.005085005,0.07409986,-48.9903,-11.78659,-31.19369,1002.219
1.833448887,3.297847,-1.412534,-1.082924,0.9646739,0.00258932,0.07910137,-48.9903,-11.78659,-31.19369,1002.219
1.838504314,3.236549,-1.170146,-1.021689,0.9650644,0.01182459,0.08028989,-48.9903,-11.78659,-31.19369,1002.219
1.843558788,3.052656,-0.9277589,-1.021689,0.9701153,0.004458038,0.09106625,-48.9903,-11.78659,-31.19369,1002.219
1.848613262,2.684871,-0.4429839,-0.8379841,0.9647554,0.01148352,0.1027856,-48.9903,-11.78659,-31.19369,1002.219
1.853668213,2.439681,0.1629849,-0.8992191,0.9647993,0.006641387,0.1012258,-48.9903,-11.78659,-31.19369,1002.219
1.858723164,2.623573,0.587163,-0.715514,0.9629784,0.0006489615,0.1092295,-48.9903,-11.78659,-31.19369,1002.219
1.863778114,2.500978,0.7689536,-0.654279,0.9624125,0.006497052,0.1079473,-48.97686,-12.15587,-30.74399,1002.219
1.868832588,2.868764,0.8901474,-0.4705739,0.9546369,0.002482162,0.1064825,-48.97686,-12.15587,-30.74399,1002.219
1.873887062,2.684871,0.7689536,-0.4705739,0.9512677,-0.004333603,0.1025111,-48.97686,-12.15587,-30.74399,1002.219
1.878942490,2.255788,0.6477599,-0.4093389,0.9483346,-0.007235495,0.09767751,-48.97686,-12.15587,-30.74399,1002.219
1.883996963,1.826705,0.2235818,-0.5318089,0.9459304,-0.01306042,0.09372217,-48.97686,-12.15587,-30.74399,1002.219
1.889051914,1.275027,-0.3217901,-0.5930439,0.9590766,-0.01799515,0.0819824,-48.97686,-12.15587,-30.74399,1002.219
1.894106865,0.9072416,-0.8065651,-0.5930439,0.9610004,-0.01743008,0.07910606,-48.97686,-12.15587,-30.74399,1002.219
1.899161816,0.4168611,-0.9883557,-0.4705739,0.9649423,-0.02361611,0.07460281,-48.97686,-12.15587,-30.74399,1002.219
1.904216289,0.1716708,-1.170146,-0.5930439,0.9658332,-0.0220118,0.06601759,-48.97686,-12.15587,-30.74399,1002.219
1.909270763,0.1716708,-1.29134,-0.4705739,0.966204,-0.009407512,0.06968569,-48.97686,-12.15587,-30.74399,1002.219
1.914326191,0.1716708,-1.170146,-0.4093389,0.9662094,-0.01513048,0.06188013,-49.71812,-12.17527,-30.73812,1002.219
1.919380665,0.4781586,-1.048953,-0.4705739,0.9672599,-0.02001094,0.06413994,-49.71812,-12.17527,-30.73812,1002.219
1.924435616,0.6007537,-0.7459683,-0.5318089,0.9675833,-0.006842632,0.06255654,-49.71812,-12.17527,-30.73812,1002.219
1.929490089,1.029837,-0.382387,-0.5318089,0.9622666,-0.00656223,0.06979522,-49.71812,-12.17527,-30.73812,1002.217
1.934545517,1.029837,-0.1399995,-0.3481038,0.9621046,0.00373551,0.06431341,-49.71812,-12.17527,-30.73812,1002.217
1.939599991,1.275027,-0.1399995,-0.4705739,0.9585811,0.01244,0.06361043,-49.71812,-12.17527,-30.73812,1002.217
1.944654465,1.520217,-0.01880575,-0.2868688,0.956656,0.01330567,0.06843817,-49.71812,-12.17527,-30.73812,1002.217
1.949709892,1.520217,0.4053724,-0.3481038,0.955705,0.01371732,0.07228765,-49.71812,-12.17527,-30.73812,1002.217
1.954764843,1.520217,0.04179113,-0.2256338,0.9561372,0.01240161,0.06315382,-49.71812,-12.17527,-30.73812,1002.217
1.959819317,1.826705,0.2235818,-0.2256338,0.9609753,0.01685537,0.06417878,-49.71812,-12.17527,-30.73812,1002.217
1.964873791,2.010598,0.3447755,-0.1031637,0.9620565,0.007633232,0.06393418,-48.98164,-12.15664,-31.19306,1002.217
1.969929695,1.9493,0.5265661,-0.2868688,0.9606485,0.00464559,0.06674408,-48.98164,-12.15664,-31.19306,1002.219
1.974983692,1.9493,0.8901474,0.01930635,0.9612434,-0.005064902,0.06601291,-48.98164,-12.15664,-31.19306,1002.219
1.980038643,2.010598,1.071938,-0.04192868,0.9606772,0.00506835,0.07106333,-48.98164,-12.15664,-31.19306,1002.219
1.985093594,2.378383,1.61731,0.2642465,0.964256,-0.008499457,0.0716422,-48.98164,-12.15664,-31.19306,1002.219
1.990148544,2.255788,1.799101,0.01930635,0.9666641,-0.002681598,0.07607607,-48.98164,-12.15664,-31.19306,1002.219
1.995203018,2.19449,2.041488,0.08054138,0.9628498,-0.006729731,0.08175429,-48.98164,-12.15664,-31.19306,1002.219
2.000257492,1.826705,2.344472,0.3254815,0.9721081,-0.008911003,0.07634504,-48.98164,-12.15664,-31.19306,1002.219
2.005312920,1.152432,2.405069,0.3254815,0.9662792,-0.007166569,0.08266827,-48.98164,-12.15664,-31.19306,1002.219
2.010367393,0.6007537,2.405069,0.3867165,0.962791,-0.0009078705,0.08286031,-48.98164,-12.15664,-31.19306,1002.219
2.015422344,-0.134817,2.102085,0.2642465,0.9564753,-0.005839904,0.07944339,-49.70468,-12.54454,-30.28843,1002.219
2.020476818,-1.054281,1.799101,0.6928917,0.9514067,0.005367865,0.07211608,-49.70468,-12.54454,-30.28843,1002.219
2.025532246,-1.483364,1.071938,0.2642465,0.9473712,0.006014585,0.05637181,-49.70468,-12.54454,-30.28843,1002.219
2.030586720,-1.973744,0.6477599,0.3254815,0.957972,0.01455989,0.05122248,-49.70468,-12.54454,-30.28843,1002.219
2.035641193,-2.341529,0.1629849,-0.2256338,0.9517338,0.008055841,0.05542494,-49.70468,-12.54454,-30.28843,1002.219
2.040696621,-2.218934,-0.07940262,-0.04192868,0.9497318,0.007159839,0.04776103,-49.70468,-12.54454,-30.28843,1002.219
2.045751572,-1.667256,-0.3217901,-0.2868688,0.9531171,0.006328493,0.04244161,-49.70468,-12.54454,-30.28843,1002.219
2.050806046,-1.054281,-0.5035807,-0.3481038,0.9599368,0.007907672,0.04289603,-49.70468,-12.54454,-30.28843,1002.217
2.053333282,-0.7477927,-0.5035807,-0.2868688,0.9560547,0.005889632,0.04288144,-49.70468,-12.54454,-30.28843,1002.217
2.058388710,-0.5026025,-0.8065651,-0.4705739,0.9546692,0.007144775,0.05489528,-49.70468,-12.54454,-30.28843,1002.217
2.063443184,-0.1961146,-0.6853714,-0.2868688,0.9630923,-0.0005526663,0.05940757,-49.34361,-12.53639,-31.1895,1002.217
2.068497658,0.04907565,-0.1399995,-0.5318089,0.9684396,-0.0008895767,0.05599719,-49.34361,-12.53639,-31.1895,1002.217
2.073552609,0.1103732,0.102388,-0.3481038,0.967051,-0.002961062,0.06266022,-49.34361,-12.53639,-31.1895,1002.217
2.078607559,0.1716708,0.7083567,-0.1643987,0.971392,0.00292847,0.06468387,-49.34361,-12.53639,-31.1895,1002.217
2.083662510,0.2942659,1.071938,-0.1031637,0.9700314,-0.0006232013,0.07274527,-49.34361,-12.53639,-31.1895,1002.217
2.088721275,0.6620513,1.677907,0.2030114,0.9690208,0.003707357,0.0747799,-49.34361,-12.53639,-31.1895,1002.217
2.093771458,0.7233489,2.102085,0.3254815,0.9646642,0.002131242,0.0771748,-49.34361,-12.53639,-31.1895,1002.217
2.098826885,1.152432,2.102085,0.6316566,0.9650775,0.006087496,0.07344141,-49.34361,-12.53639,-31.1895,1002.217
2.103881836,1.275027,2.344472,0.5091866,0.9572743,0.009740907,0.07983181,-49.34361,-12.53639,-31.1895,1002.217
2.108936310,1.45892,2.102085,0.5091866,0.960201,0.005989543,0.07396377,-49.34361,-12.53639,-31.1895,1002.217
2.113991737,1.70411,1.799101,0.3867165,0.9611314,0.01132912,0.0760057,-49.36093,-11.7963,-31.19075,1002.217
2.119046211,1.70411,1.738504,0.3867165,0.9628085,-0.004749085,0.07941124,-49.36093,-11.7963,-31.19075,1002.217
2.124100685,1.826705,1.253729,0.3867165,0.9559538,0.001354166,0.08585495,-49.36093,-11.7963,-31.19075,1002.217
2.129155636,1.581515,1.193132,0.2642465,0.9579668,-0.003959133,0.08570088,-49.36093,-11.7963,-31.19075,1002.217
2.134212017,0.9072416,1.132535,0.3254815,0.9617589,0.002034326,0.08007232,-49.36093,-11.7963,-31.19075,1002.215
2.139265537,-0.07351948,0.8295505,0.3254815,0.9550264,-0.005895424,0.08137069,-49.36093,-11.7963,-31.19075,1002.215
2.144320011,-0.6251976,0.5265661,0.2030114,0.9608198,-0.0009089077,0.08048515,-49.36093,-11.7963,-31.19075,1002.215
2.149375439,-1.544661,0.4053724,0.1417764,0.9549881,-0.001539624,0.08291802,-49.36093,-11.7963,-31.19075,1002.215
2.154429913,-2.035042,0.102388,0.2030114,0.9589265,-0.006767123,0.07939665,-49.36093,-11.7963,-31.19075,1002.215
2.159484386,-2.157637,0.3447755,0.2030114,0.9565438,-0.01120369,0.08026394,-48.98164,-12.15664,-31.19306,1002.215
2.164539337,-2.096339,0.3447755,0.2642465,0.9579667,-0.009195771,0.07790774,-48.98164,-12.15664,-31.19306,1002.215
2.169594288,-1.544661,0.2235818,0.2642465,0.9603733,-0.00718381,0.07649987,-48.98164,-12.15664,-31.19306,1002.215
2.174649239,-1.299471,0.6477599,0.4479516,0.9633936,-0.01063249,0.08308622,-48.98164,-12.15664,-31.19306,1002.219
2.179703713,-0.8090903,0.6477599,0.2030114,0.9671674,-0.002700763,0.07798584,-48.98164,-12.15664,-31.19306,1002.219
2.184758186,-0.6864951,1.071938,0.2030114,0.9623307,0.001888018,0.09059577,-48.98164,-12.15664,-31.19306,1002.219
2.189813614,-0.5639,1.314326,0.3254815,0.9623037,0.0009859883,0.08578557,-48.98164,-12.15664,-31.19306,1002.219
2.194868088,-0.5026025,1.374923,0.3254815,0.9666216,0.01120307,0.0912707,-48.98164,-12.15664,-31.19306,1002.219
2.199923039,-0.5639,1.61731,0.3254815,0.9608251,0.008126562,0.09459858,-48.98164,-12.15664,-31.19306,1002.219
2.204978466,-0.992983,1.677907,0.3867165,0.9612976,0.007212431,0.0912196,-48.98164,-12.15664,-31.19306,1002.219
2.210033417,-0.5026025,2.223279,0.3254815,0.9613741,0.002785996,0.09445766,-49.36481,-11.42548,-30.74231,1002.219
2.215087414,-0.8090903,2.405069,0.4479516,0.9594776,-0.006398847,0.08801837,-49.36481,-11.42548,-30.74231,1002.219
2.220142365,-0.3800073,2.405069,0.5704216,0.9659113,-0.01215906,0.09068368,-49.36481,-11.42548,-30.74231,1002.219
2.225197315,0.04907565,2.283876,0.6928917,0.9610658,-0.01564721,0.09016208,-49.36481,-11.42548,-30.74231,1002.219
2.230252266,0.7846465,2.526263,0.7541267,0.965572,-0.02196543,0.0952252,-49.36481,-11.42548,-30.74231,1002.219
2.235306740,1.45892,2.647457,0.9990668,0.9621851,-0.02493998,0.09470287,-49.36481,-11.42548,-30.74231,1002.219
2.240361214,2.255788,2.647457,1.121537,0.9602549,-0.02787314,0.09321031,-49.36481,-11.42548,-30.74231,1002.219
2.245416641,2.991359,2.829247,1.366477,0.9651798,-0.03072144,0.09452763,-49.36481,-11.42548,-30.74231,1002.219
2.250471115,3.481739,2.708054,1.305242,0.9637486,-0.03461817,0.09300587,-49.36481,-11.42548,-30.74231,1002.219
2.255526066,4.156013,2.889844,1.427712,0.9653448,-0.04292918,0.09756708,-49.36481,-11.42548,-30.74231,1002.219
2.260581017,4.278608,2.889844,1.244007,0.9667273,-0.03703768,0.09578874,-49.35227,-12.16634,-31.19013,1002.219
2.265635967,4.462501,2.465666,1.305242,0.9660777,-0.02579756,0.09177175,-49.35227,-12.16634,-31.19013,1002.219
2.270690441,4.401203,2.223279,1.611417,0.9611042,-0.02000301,0.08861476,-49.35227,-12.16634,-31.19013,1002.219
2.275744915,3.481739,2.102085,1.060302,0.9556369,-0.0146827,0.08401413,-49.35227,-12.16634,-31.19013,1002.219
2.280800343,2.255788,1.435519,0.8765967,0.9465829,0.003268077,0.0764171,-49.35227,-12.16634,-31.19013,1002.219
2.283327580,1.70411,1.193132,0.8153617,0.9501032,-0.003526398,0.07956242,-49.35227,-12.16634,-31.19013,1002.219
2.288382530,0.3555635,1.011341,0.6928917,0.9495885,0.001750596,0.08401018,-49.35227,-12.16634,-31.19013,1002.219
2.293437004,-0.7477927,0.7689536,0.5091866,0.9491109,-0.001134106,0.08106887,-49.35227,-12.16634,-31.19013,1002.219
2.298492432,-1.299471,0.8901474,0.3254815,0.9496412,-0.0002512438,0.08778884,-49.35227,-12.16634,-31.19013,1002.217
2.303546906,-1.299471,1.011341,0.3867165,0.9574574,-0.0001199486,0.0886758,-49.35227,-12.16634,-31.19013,1002.217
2.308601379,-1.238173,1.071938,0.2642465,0.9549594,0.003274254,0.0863919,-49.35704,-12.16712,-31.6392,1002.217
2.313656807,-0.7477927,1.132535,0.3254815,0.9608797,0.001360291,0.09155358,-49.35704,-12.16712,-31.6392,1002.217
2.318711281,-0.4413049,1.253729,0.3254815,0.9589944,0.00167606,0.1006757,-49.35704,-12.16712,-31.6392,1002.217
2.323766232,0.04907565,1.132535,0.1417764,0.9648727,-0.001111675,0.09911307,-49.35704,-12.16712,-31.6392,1002.217
2.328824520,0.5394562,1.314326,0.2030114,0.9635345,-0.005657204,0.1085853,-49.35704,-12.16712,-31.6392,1002.217
2.333876133,0.6620513,1.496116,0.2030114,0.9604628,0.002647736,0.1026016,-49.35704,-12.16712,-31.6392,1002.217
2.338930607,1.029837,1.496116,0.1417764,0.9659855,-0.007535898,0.1070781,-49.35704,-12.16712,-31.6392,1002.216
2.343985081,1.152432,1.859697,0.5091866,0.9611992,-0.01589444,0.1069109,-49.35704,-12.16712,-31.6392,1002.216
2.349040032,1.520217,2.041488,0.5091866,0.9632032,-0.01976287,0.1077512,-49.35704,-12.16712,-31.6392,1002.216
2.354094982,2.133193,2.162682,0.3867165,0.9622445,-0.02457373,0.1028504,-49.35704,-12.16712,-31.6392,1002.216
2.359149933,2.439681,2.283876,0.8153617,0.9569111,-0.02807097,0.1023332,-49.7229,-12.17604,-31.18719,1002.216
2.364204407,2.930061,2.283876,0.8153617,0.9608811,-0.03050055,0.1070215,-49.7229,-12.17604,-31.18719,1002.216
2.369259834,3.113954,2.102085,0.7541267,0.9568453,-0.02556867,0.09760989,-49.7229,-12.17604,-31.18719,1002.216
2.374314308,3.052656,2.283876,0.8153617,0.9548939,-0.02370208,0.1005483,-49.7229,-12.17604,-31.18719,1002.216
2.379369259,2.991359,1.980891,0.8153617,0.960842,-0.02804771,0.1056479,-49.7229,-12.17604,-31.18719,1002.214
2.384423733,2.684871,1.920294,0.8153617,0.9607551,-0.02074566,0.1053556,-49.7229,-12.17604,-31.18719,1002.214
2.389479160,2.623573,1.859697,0.6928917,0.9665924,-0.02060127,0.1029103,-49.7229,-12.17604,-31.18719,1002.214
2.394533634,2.562276,1.980891,0.8153617,0.9631593,-0.01492073,0.1093109,-49.7229,-12.17604,-31.18719,1002.214
2.399588108,2.439681,2.223279,0.8765967,0.9612055,-0.01447782,0.1098194,-49.7229,-12.17604,-31.18719,1002.214
2.404643536,2.439681,2.405069,1.121537,0.9549465,-0.02570391,0.104327,-49.3657,-11.79707,-31.63982,1002.214
2.409698010,2.562276,2.708054,1.244007,0.9573305,-0.0226981,0.1015083,-49.3657,-11.79707,-31.63982,1002.214
2.414752960,2.562276,2.768651,0.9378318,0.9562321,-0.01391991,0.09886923,-49.3657,-11.79707,-31.63982,1002.214
2.419807434,2.746169,2.223279,1.182772,0.9548008,-0.01781665,0.09734748,-49.3657,-11.79707,-31.63982,1002.214
2.424862862,2.684871,2.102085,1.305242,0.9561611,-0.009979809,0.09561877,-49.3657,-11.79707,-31.63982,1002.214
2.429917336,2.807466,1.859697,0.9990668,0.9522578,-0.01243474,0.092242,-49.3657,-11.79707,-31.63982,1002.214
2.434971809,2.807466,1.435519,0.9990668,0.9526701,-0.006096269,0.09192044,-49.3657,-11.79707,-31.63982,1002.214
2.440026760,2.562276,1.374923,0.7541267,0.956637,-0.01185248,0.0912579,-49.3657,-11.79707,-31.63982,1002.214
2.445081711,2.684871,1.435519,0.6316566,0.9537471,-0.01626281,0.08973686,-49.3657,-11.79707,-31.63982,1002.214
2.450136662,2.684871,1.314326,0.5704216,0.9561507,-0.01234083,0.09077132,-49.3657,-11.79707,-31.63982,1002.214
2.455191136,2.746169,1.496116,0.5091866,0.9596851,-0.02201799,0.09144948,-48.9903,-11.78659,-31.19369,1002.214
2.460246563,2.930061,1.374923,0.3254815,0.9504257,-0.02269114,0.09247742,-48.9903,-11.78659,-31.19369,1002.216
2.465301037,3.236549,1.556713,0.4479516,0.9572201,-0.01725662,0.09542383,-48.9903,-11.78659,-31.19369,1002.216
2.470355511,3.481739,1.61731,0.5091866,0.9641979,-0.03120476,0.09308837,-48.9903,-11.78659,-31.19369,1002.216
2.475410462,3.604334,1.435519,0.3254815,0.9588175,-0.02794985,0.09657323,-48.9903,-11.78659,-31.19369,1002.216
2.480465889,3.604334,1.435519,0.2642465,0.9647606,-0.02990619,0.1046061,-48.9903,-11.78659,-31.19369,1002.216
2.485520363,4.033417,1.496116,0.2642465,0.9653038,-0.03047526,0.1108103,-48.9903,-11.78659,-31.19369,1002.216
2.490574837,4.768988,1.374923,0.1417764,0.9638141,-0.02759866,0.111855,-48.9903,-11.78659,-31.19369,1002.216
2.495630264,5.627154,1.61731,-0.04192868,0.9619398,-0.0334922,0.1131592,-48.9903,-11.78659,-31.19369,1002.216
2.500684738,6.117535,1.61731,0.08054138,0.963415,-0.0344376,0.1131213,-48.9903,-11.78659,-31.19369,1002.215
2.505739689,6.48532,1.738504,-0.04192868,0.9654828,-0.03604389,0.1255085,-48.99508,-11.78737,-31.64275,1002.215
2.510794163,6.9757,2.041488,-0.1031637,0.969433,-0.04034111,0.1248832,-48.99508,-11.78737,-31.64275,1002.215
2.513321877,7.159593,2.526263,0.08054138,0.9674366,-0.0364868,0.125,-48.99508,-11.78737,-31.64275,1002.215
2.518376827,8.017759,2.768651,0.01930635,0.9709327,-0.04180815,0.1272255,-48.99508,-11.78737,-31.64275,1002.215
2.523431301,8.385545,3.55641,-0.1031637,0.9625899,-0.03330757,0.1342229,-48.99508,-11.78737,-31.64275,1002.215
2.528485775,8.692033,3.980588,-0.04192868,0.9624646,-0.032123,0.1198916,-48.99508,-11.78737,-31.64275,1002.215
2.533541203,8.75333,3.919991,0.1417764,0.9591288,-0.03138348,0.131432,-48.99508,-11.78737,-31.64275,1002.215
2.538596153,8.630734,4.162379,-0.04192868,0.9604908,-0.02402592,0.1292124,-48.99508,-11.78737,-31.64275,1002.215
2.543650627,7.772569,4.404766,0.2030114,0.9624197,-0.01966202,0.1326563,-48.99508,-11.78737,-31.64275,1002.211
2.548705101,6.9757,4.283573,0.2030114,0.9657975,-0.02047923,0.1263798,-48.99508,-11.78737,-31.64275,1002.211
2.553760528,5.994939,4.222976,0.08054138,0.9622235,-0.009300703,0.1228677,-48.67299,-12.52004,-32.02887,1002.211
2.558815002,4.952881,3.980588,0.3867165,0.9533603,-0.005510075,0.118739,-48.67299,-12.52004,-32.02887,1002.211
2.563869953,3.788227,3.677604,0.01930635,0.9493748,-0.004003709,0.1106762,-48.67299,-12.52004,-32.02887,1002.211
2.568924904,2.868764,3.253426,0.2030114,0.9467928,0.003831055,0.1041971,-48.67299,-12.52004,-32.02887,1002.211
2.573979854,1.520217,2.162682,0.01930635,0.9487147,0.004875392,0.1018117,-48.67299,-12.52004,-32.02887,1002.211
2.579034328,0.04907565,1.374923,-0.04192868,0.9519562,0.01668869,0.09681503,-48.67299,-12.52004,-32.02887,1002.211
2.584088802,-0.8090903,0.6477599,-0.04192868,0.951151,0.004927901,0.1013113,-48.67299,-12.52004,-32.02887,1002.209
2.589144230,-1.728554,0.4053724,-0.1643987,0.9593843,0.009008386,0.09894339,-48.67299,-12.52004,-32.02887,1002.209
2.594198704,-2.58672,-0.1399995,-0.2868688,0.9559854,0.009388717,0.1018577,-48.67299,-12.52004,-32.02887,1002.209
2.599253654,-3.628778,-0.2005964,-0.2256338,0.9516761,0.002011931,0.101711,-48.67299,-12.52004,-32.02887,1002.209
2.604308128,-4.60954,-0.6247745,-0.1031637,0.9459399,-0.003080539,0.1097746,-48.99051,-12.15808,-32.02705,1002.209
2.609364986,-5.161217,-0.6853714,-0.1643987,0.9465538,-0.01282635,0.1114361,-48.99051,-12.15808,-32.02705,1002.209
2.614418030,-5.09992,-0.7459683,-0.1031637,0.9380267,-0.03298608,0.1148344,-48.99051,-12.15808,-32.02705,1002.209
2.619472504,-4.119159,-0.8065651,-0.3481038,0.9444464,-0.04014878,0.1136342,-48.99051,-12.15808,-32.02705,1002.209
2.624527931,-2.83191,-0.5641776,-0.1031637,0.9475006,-0.04984914,0.1152738,-48.99051,-12.15808,-32.02705,1002.207
2.629582405,-0.992983,-0.5641776,-0.2256338,0.9618738,-0.06665664,0.118062,-48.99051,-12.15808,-32.02705,1002.207
2.634637356,1.336325,-0.2611932,-0.1031637,0.9644738,-0.07738113,0.1225524,-48.99051,-12.15808,-32.02705,1002.207
2.639691830,3.72693,-0.1399995,-0.04192868,0.9724658,-0.0861451,0.1327867,-48.99051,-12.15808,-32.02705,1002.207
2.644747257,5.933642,0.04179113,0.01930635,0.9745463,-0.09443997,0.136865,-48.99051,-12.15808,-32.02705,1002.207
2.649801731,7.649974,0.1629849,0.2030114,0.9775191,-0.09732461,0.1381999,-48.97319,-12.89817,-32.02579,1002.207
2.654856682,8.630734,0.4053724,0.3867165,0.9742386,-0.1014484,0.1496162,-48.97319,-12.89817,-32.02579,1002.207
2.659911632,9.672793,0.8295505,0.6316566,0.9797527,-0.1092357,0.1565474,-48.97319,-12.89817,-32.02579,1002.207
2.664966583,11.26653,1.496116,0.7541267,0.9876345,-0.1116067,0.1621577,-48.97319,-12.89817,-32.02579,1002.212
2.670021057,13.04416,2.58686,1.305242,0.9984155,-0.1100608,0.1697552,-48.97319,-12.89817,-32.02579,1002.212
2.675075531,15.25087,3.798798,1.305242,1.011682,-0.1095056,0.1816127,-48.97319,-12.89817,-32.02579,1002.212
2.680130958,17.76407,5.010735,1.917592,1.01316,-0.1071244,0.1869255,-48.97319,-12.89817,-32.02579,1002.212
2.685185432,20.27727,6.101479,2.285002,1.008275,-0.1005408,0.1962353,-48.97319,-12.89817,-32.02579,1002.212
2.690240383,22.30009,6.828641,2.652413,0.9987061,-0.1077432,0.2105054,-48.97319,-12.89817,-32.02579,1002.212
2.695295334,23.15826,7.313416,2.958588,0.9883649,-0.0958605,0.2166502,-48.97319,-12.89817,-32.02579,1002.212
2.700350285,23.09696,7.43461,3.325998,0.9790155,-0.08732159,0.2198281,-48.68165,-12.14999,-32.02949,1002.212
2.705404758,22.30009,6.646851,3.325998,0.9653295,-0.08277633,0.2243817,-48.68165,-12.14999,-32.02949,1002.213
2.710459232,20.21597,5.980285,3.448468,0.9451836,-0.07146994,0.2243808,-48.68165,-12.14999,-32.02949,1002.213
2.715514660,17.27369,5.131929,3.570938,0.9322364,-0.05456454,0.216794,-48.68165,-12.14999,-32.02949,1002.213
2.720569134,14.14752,3.677604,3.081058,0.9202146,-0.04040357,0.1985961,-48.68165,-12.14999,-32.02949,1002.213
2.725624084,11.02134,1.980891,2.713648,0.919494,-0.03045998,0.1835355,-48.68165,-12.14999,-32.02949,1002.213
2.730678558,8.140354,0.102388,2.162533,0.9240974,-0.01652575,0.168526,-48.68165,-12.14999,-32.02949,1002.213
2.735733986,5.811047,-0.8065651,1.733887,0.9312485,-0.01036271,0.1556887,-48.68165,-12.14999,-32.02949,1002.213
2.740788460,4.339905,-1.412534,1.917592,0.9412667,0.0002530362,0.1415012,-48.68165,-12.14999,-32.02949,1002.213
2.743315697,3.910822,-1.715518,1.795122,0.9461089,0.0004145612,0.136672,-48.68165,-12.14999,-32.02949,1002.213
2.748370647,3.236549,-2.200293,1.978827,0.956757,0.003159194,0.128981,-48.31968,-11.77024,-32.03305,1002.21
2.753425598,3.052656,-2.079099,2.101297,0.9695645,-0.0001571535,0.1388295,-48.31968,-11.77024,-32.03305,1002.21
2.758480549,3.359144,-1.230743,2.774883,0.9730855,-0.01028532,0.1371026,-48.31968,-11.77024,-32.03305,1002.21
2.763535023,3.97212,-0.6247745,3.203528,0.9819545,-0.01361081,0.1426793,-48.31968,-11.77024,-32.03305,1002.21
2.768590450,4.156013,0.1629849,3.693408,0.984531,-0.02095924,0.1491707,-48.31968,-11.77024,-32.03305,1002.21
2.773646831,4.401203,0.6477599,4.122054,0.978438,-0.03201687,0.1652249,-48.31968,-11.77024,-32.03305,1002.21
2.778699398,5.136774,1.253729,4.611934,0.9669412,-0.04596531,0.1726391,-48.31968,-11.77024,-32.03305,1002.21
2.783754349,5.994939,2.041488,4.918109,0.951952,-0.05459949,0.1783064,-48.31968,-11.77024,-32.03305,1002.21
2.788809299,7.711271,1.920294,4.979344,0.9480714,-0.05281162,0.1841336,-48.31968,-11.77024,-32.03305,1002.21
2.793864250,9.611496,1.435519,4.795639,0.9439129,-0.06951348,0.1894935,-48.31968,-11.77024,-32.03305,1002.21
2.798918724,10.59226,1.314326,4.366993,0.9504585,-0.07690929,0.204085,-48.60713,-12.51776,-31.64444,1002.21
2.803973198,10.16317,1.193132,3.938348,0.9589816,-0.09240922,0.2098343,-48.60713,-12.51776,-31.64444,1002.21
2.809028625,9.182413,1.61731,3.632173,0.9689508,-0.1049922,0.2175591,-48.60713,-12.51776,-31.64444,1002.21
2.814083576,8.630734,1.61731,3.509703,0.977822,-0.1078455,0.2241053,-48.60713,-12.51776,-31.64444,1002.21
2.819138050,8.446842,1.496116,3.264763,0.9809204,-0.1214365,0.2256456,-48.60713,-12.51776,-31.64444,1002.21
2.824193478,8.201652,1.61731,2.713648,0.9795612,-0.1264189,0.2317556,-48.60713,-12.51776,-31.64444,1002.21
2.829247951,7.649974,1.071938,2.713648,0.9649826,-0.1282353,0.2375923,-48.60713,-12.51776,-31.64444,1002.21
2.834302425,6.424023,0.8295505,2.713648,0.9553296,-0.1309971,0.2476672,-48.60713,-12.51776,-31.64444,1002.21
2.839357376,5.259369,0.8295505,2.774883,0.9474935,-0.1287109,0.2477994,-48.60713,-12.51776,-31.64444,1002.21
2.844412327,4.339905,0.102388,2.713648,0.9476269,-0.1437165,0.2426292,-48.60713,-12.51776,-31.64444,1002.21
2.849467277,3.297847,-1.412534,3.081058,0.9634588,-0.1547738,0.2532099,-48.6151,-12.1476,-31.58091,1002.21
2.854521751,0.2942659,-1.29134,3.448468,0.9707446,-0.160762,0.2395837,-48.6151,-12.1476,-31.58091,1002.21
2.859577179,-3.751374,-1.230743,4.489464,0.9660422,-0.1440825,0.224732,-48.6151,-12.1476,-31.58091,1002.21
2.864631653,-7.490525,-0.01880575,5.407989,0.947027,-0.1221332,0.1977018,-48.6151,-12.1476,-31.58091,1002.21
2.869686127,-9.574642,1.132535,5.714164,0.9179689,-0.08603605,0.1558061,-48.6151,-12.1476,-31.58091,1002.208
2.874741077,-10.43281,1.011341,5.652929,0.8967931,-0.06088021,0.1068552,-48.6151,-12.1476,-31.58091,1002.208
2.879796028,-9.513345,-0.6853714,4.734404,0.8765025,-0.04406878,0.09646294,-48.6151,-12.1476,-31.58091,1002.208
2.884850979,-8.593881,-1.533728,3.999583,0.8743362,-0.03085408,0.08868045,-48.6151,-12.1476,-31.58091,1002.208
2.889905453,-7.000144,-1.473131,3.264763,0.8846969,-0.02182553,0.1161009,-48.6151,-12.1476,-31.58091,1002.208
2.894959927,-6.264574,-0.867162,2.652413,0.8996332,-0.001667722,0.1207808,-48.6151,-12.1476,-31.58091,1002.208
2.900015354,-6.754954,-0.9277589,1.244007,0.9033941,0.002479302,0.1084031,-48.60235,-12.51698,-31.19537,1002.208
2.905069828,-7.85831,-1.170146,0.01930635,0.9078043,-0.0003286393,0.106375,-48.60235,-12.51698,-31.19537,1002.208
2.910124779,-9.758534,-2.563874,-1.389099,0.9200822,-0.007861542,0.1046312,-48.60235,-12.51698,-31.19537,1002.208
2.915180206,-11.29097,-3.04865,-2.6138,0.9398481,-0.01556891,0.1238774,-48.60235,-12.51698,-31.19537,1002.208
2.920234680,-11.84265,-3.472828,-3.654795,0.9427887,-0.02315442,0.1140817,-48.60235,-12.51698,-31.19537,1002.208
2.925289154,-11.96525,-4.018199,-4.328381,0.9399593,-0.03910252,0.1031706,-48.60235,-12.51698,-31.19537,1002.208
2.930344105,-13.1912,-4.624168,-5.063201,0.9403057,-0.03549839,0.09033258,-48.60235,-12.51698,-31.19537,1002.208
2.935399055,-14.60104,-5.351331,-5.675551,0.941086,-0.01893079,0.08978874,-48.60235,-12.51698,-31.19537,1002.208
2.940454006,-14.96883,-5.048347,-6.410372,0.9548088,-0.0168793,0.09976499,-48.60235,-12.51698,-31.19537,1002.208
2.945508480,-13.2525,-4.018199,-7.451367,0.9648154,-0.02619919,0.1171474,-48.31559,-11.76958,-31.64813,1002.208
2.950563908,-10.5554,-2.442681,-7.635072,0.976802,-0.03791438,0.1344503,-48.31559,-11.76958,-31.64813,1002.208
2.955618381,-8.409988,-0.382387,-7.390132,0.9681543,-0.05927882,0.1205839,-48.31559,-11.76958,-31.64813,1002.208
2.960672855,-7.980906,-0.07940262,-6.655312,0.9567792,-0.06396975,0.09471957,-48.31559,-11.76958,-31.64813,1002.208
2.965727806,-9.022964,-0.5035807,-6.165431,0.9423515,-0.04991778,0.08085046,-48.31559,-11.76958,-31.64813,1002.208
2.970782757,-9.942428,-1.412534,-5.859256,0.9316884,-0.0274407,0.06141485,-48.31559,-11.76958,-31.64813,1002.208
2.973310471,-10.00373,-1.533728,-5.553081,0.9291291,-0.01964833,0.05780706,-48.31559,-11.76958,-31.64813,1002.208
2.978364944,-9.819833,-1.473131,-5.491846,0.9313507,0.002225562,0.062172,-48.31559,-11.76958,-31.64813,1002.208
2.983419418,-10.37151,-1.351937,-5.369376,0.9242275,0.01453917,0.04340212,-48.31559,-11.76958,-31.64813,1002.208
2.988474846,-11.10708,-1.957906,-5.675551,0.9147245,0.030028,0.03718305,-48.31559,-11.76958,-31.64813,1002.208
2.993529320,-12.94601,-2.382084,-5.981726,0.9151223,0.03829767,0.03786821,-48.60235,-12.51698,-31.19537,1002.212
2.998584270,-14.84623,-3.109246,-6.532842,0.9198395,0.04583188,0.02796127,-48.60235,-12.51698,-31.19537,1002.212
3.003638744,-16.50127,-3.654618,-7.328897,0.938989,0.04121001,0.03532284,-48.60235,-12.51698,-31.19537,1002.212
3.008694172,-17.48203,-3.715215,-8.002482,0.9536961,0.03469521,0.03358199,-48.60235,-12.51698,-31.19537,1002.212
3.013748646,-17.29814,-3.836409,-8.553598,0.9641708,0.01304351,0.03006019,-48.60235,-12.51698,-31.19537,1002.212
3.018803120,-15.88829,-4.260587,-8.614833,0.9666461,-0.005066744,0.007553864,-48.60235,-12.51698,-31.19537,1002.212
3.023858547,-14.35585,-4.98775,-8.614833,0.9627881,-0.01379455,0.0006659748,-48.60235,-12.51698,-31.19537,1002.212
3.028913021,-13.68158,-6.13909,-8.492363,0.967504,-0.004829596,-0.007289577,-48.60235,-12.51698,-31.19537,1002.212
3.033967972,-13.1912,-7.351027,-8.798538,0.9584558,0.01358632,-0.01343857,-48.60235,-12.51698,-31.19537,1002.212
3.039022446,-12.70082,-7.532818,-9.533359,0.958248,0.03349062,-0.01053698,-48.60235,-12.51698,-31.19537,1002.212
3.044077873,-11.90395,-7.411624,-10.14571,0.9506749,0.05096114,-0.01672394,-48.97686,-12.15587,-30.74399,1002.212
3.049132347,-10.86189,-7.775206,-11.1867,0.9544093,0.06039425,-0.02465831,-48.97686,-12.15587,-30.74399,1002.212
3.054186821,-9.819833,-8.502369,-11.86029,0.9514945,0.05555409,-0.03002006,-48.97686,-12.15587,-30.74399,1002.212
3.059242249,-9.39075,-9.411322,-12.84005,0.9535496,0.06063637,-0.009323919,-48.97686,-12.15587,-30.74399,1002.212
3.064296722,-9.513345,-10.56266,-13.4524,0.9551391,0.0647157,0.01278739,-48.97686,-12.15587,-30.74399,1002.212
3.069351673,-9.39075,-10.86565,-14.55463,0.9488242,0.06692325,0.02008449,-48.97686,-12.15587,-30.74399,1002.212
3.074406147,-9.329452,-11.04744,-15.53439,0.9476495,0.05588587,0.04088024,-48.97686,-12.15587,-30.74399,1002.212
3.079461575,-9.39075,-10.80505,-16.63662,0.959179,0.03553476,0.04935037,-48.97686,-12.15587,-30.74399,1002.212
3.084516048,-8.287394,-10.38087,-17.00403,0.9539077,-0.005172982,0.0641645,-48.97686,-12.15587,-30.74399,1002.212
3.089570999,-5.958086,-10.19908,-17.00403,0.958472,-0.05916791,0.06849416,-48.97686,-12.15587,-30.74399,1002.212
3.094625950,-3.873969,-9.896097,-16.69786,0.9588774,-0.1013375,0.05784354,-48.98552,-11.78582,-30.74462,1002.212
3.099680901,-2.525422,-9.956694,-16.20798,0.9659847,-0.1302843,0.04985938,-48.98552,-11.78582,-30.74462,1002.212
3.104735374,-1.728554,-9.956694,-15.59563,0.9748048,-0.1420883,0.03654967,-48.98552,-11.78582,-30.74462,1002.212
3.109789848,-0.7477927,-9.168935,-14.98328,0.9825199,-0.1317722,0.03961144,-48.98552,-11.78582,-30.74462,1002.212
3.114845276,-0.3800073,-8.078191,-14.61587,0.9985409,-0.1217951,0.04306483,-48.98552,-11.78582,-30.74462,1002.218
3.119899750,-0.3187097,-7.10864,-14.43216,0.9990895,-0.09765705,0.0240442,-48.98552,-11.78582,-30.74462,1002.218
3.124954700,-0.134817,-6.987446,-14.24846,0.988476,-0.05956188,0.03420901,-48.98552,-11.78582,-30.74462,1002.218
3.130009174,-0.07351948,-6.563268,-14.12599,0.9765044,-0.02359471,0.05486515,-48.98552,-11.78582,-30.74462,1002.218
3.135064602,-0.8703879,-6.260284,-14.30969,0.9671729,0.02200637,0.05276101,-48.98552,-11.78582,-30.74462,1002.218
3.140119076,-2.035042,-6.13909,-14.61587,0.9512383,0.04896426,0.05263925,-48.98552,-11.78582,-30.74462,1002.218
3.145173550,-3.812671,-6.199687,-15.10575,0.942271,0.07437142,0.06725358,-48.95067,-12.89452,-29.90876,1002.218
3.150228977,-5.406408,-6.199687,-15.53439,0.9402341,0.08210932,0.06794824,-48.95067,-12.89452,-29.90876,1002.218
3.155283451,-6.877549,-6.381478,-15.7181,0.9271381,0.0688601,0.05911775,-48.95067,-12.89452,-29.90876,1002.216
3.160338402,-9.084262,-7.654012,-15.47316,0.9320301,0.05940799,0.0463837,-48.95067,-12.89452,-29.90876,1002.216
3.165392876,-11.41357,-9.108337,-14.98328,0.9261124,0.05846047,0.03731924,-48.95067,-12.89452,-29.90876,1002.216
3.170448303,-14.17196,-9.8355,-14.61587,0.9375091,0.04454469,0.03829411,-48.95067,-12.89452,-29.90876,1002.216
3.175502777,-16.50127,-10.07789,-14.55463,0.9357399,0.02941084,0.03936247,-48.95067,-12.89452,-29.90876,1002.216
3.180560112,-17.66592,-10.19908,-14.61587,0.9428149,0.01052168,0.04216681,-48.95067,-12.89452,-29.90876,1002.216
3.185612679,-18.58538,-10.44147,-14.73834,0.9543195,-0.01025926,0.04679621,-48.95067,-12.89452,-29.90876,1002.216
3.190667629,-18.58538,-10.74445,-15.16698,0.962006,-0.03508127,0.0566253,-48.94201,-13.26457,-29.90813,1002.216
3.195722103,-17.78852,-10.86565,-15.22822,0.9717045,-0.06807099,0.06191901,-48.94201,-13.26457,-29.90813,1002.214
3.200776577,-16.56256,-11.28983,-15.65686,0.9584237,-0.09617357,0.06994791,-48.94201,-13.26457,-29.90813,1002.214
3.203303814,-15.82699,-11.28983,-15.77933,0.9549513,-0.09851345,0.05938868,-48.94201,-13.26457,-29.90813,1002.214
3.208359242,-14.11066,-10.98684,-16.14674,0.9520606,-0.1153,0.03936049,-48.94201,-13.26457,-29.90813,1002.214
3.213413715,-11.47487,-10.74445,-16.45292,0.9516508,-0.1254514,0.03431884,-48.94201,-13.26457,-29.90813,1002.214
3.218468666,-7.36793,-10.07789,-16.82033,0.9550211,-0.1357763,0.01295942,-48.94201,-13.26457,-29.90813,1002.214
3.223524094,-2.096339,-10.13848,-16.75909,0.9720329,-0.1571909,0.03427704,-48.94201,-13.26457,-29.90813,1002.214
3.228578568,2.746169,-8.926547,-16.33045,0.987987,-0.1727593,0.05383822,-48.94201,-13.26457,-29.90813,1002.214
3.233633041,6.607915,-8.381175,-15.77933,0.9865779,-0.1786014,0.0522668,-48.94201,-13.26457,-29.90813,1002.214
3.238687515,9.121116,-7.048043,-15.47316,0.9971119,-0.1546983,0.06139226,-48.94201,-13.26457,-29.90813,1002.214
3.243742943,10.10188,-4.624168,-15.22822,0.9898801,-0.1121907,0.07355226,-49.27855,-14.32119,-29.00529,1002.214
3.248797894,11.20523,-3.23044,-15.16698,0.9653164,-0.07286882,0.04940986,-49.27855,-14.32119,-29.00529,1002.214
3.253852367,13.10546,-2.988053,-15.59563,0.952062,-0.02111703,0.05420167,-49.27855,-14.32119,-29.00529,1002.214
3.258907795,14.69919,-3.351634,-15.96304,0.943238,0.03064593,0.06373942,-49.27855,-14.32119,-29.00529,1002.214
3.263962269,16.59942,-3.169843,-16.88156,0.9446388,0.05983088,0.09893814,-49.27855,-14.32119,-29.00529,1002.214
3.269016743,16.9672,-2.200293,-17.73885,0.9443707,0.07651451,0.08931085,-49.27855,-14.32119,-29.00529,1002.214
3.274071693,15.92514,-2.018502,-18.22873,0.9502864,0.06746804,0.08327997,-49.27855,-14.32119,-29.00529,1002.214
3.279126644,13.28935,-2.018502,-18.65738,0.9434679,0.06874327,0.08720688,-49.27855,-14.32119,-29.00529,1002.213
3.284181595,11.38912,-1.230743,-19.02479,0.9468808,0.07500207,0.09595124,-49.27855,-14.32119,-29.00529,1002.213
3.289236069,9.795388,-1.29134,-19.75961,0.9440943,0.05659406,0.08689219,-48.92857,-13.63384,-29.45844,1002.213
3.294291496,7.649974,-1.473131,-20.37196,0.9564871,0.04027892,0.08683915,-48.92857,-13.63384,-29.45844,1002.213
3.299345970,5.443262,-1.533728,-20.55566,0.9527172,0.02281833,0.07829224,-48.92857,-13.63384,-29.45844,1002.213
3.304400444,4.462501,-1.533728,-20.24949,0.9408636,0.02286155,0.06069151,-48.92857,-13.63384,-29.45844,1002.213
3.309455395,3.359144,-2.624471,-20.37196,0.9269765,0.02444749,0.03501039,-48.92857,-13.63384,-29.45844,1002.213
3.314510346,1.520217,-3.109246,-19.88208,0.9224645,0.03030057,0.02849925,-48.92857,-13.63384,-29.45844,1002.213
3.319565296,-0.8090903,-3.654618,-19.82084,0.9134426,0.0529522,0.03203273,-48.92857,-13.63384,-29.45844,1002.211
3.324619770,-2.709315,-3.109246,-20.31072,0.9280763,0.0594271,0.04019776,-48.92857,-13.63384,-29.45844,1002.211
3.329674244,-4.119159,-2.139696,-21.10678,0.9364979,0.05744557,0.05299414,-48.92857,-13.63384,-29.45844,1002.211
3.334729672,-5.038622,-2.018502,-21.53543,0.9529758,0.03087009,0.06078054,-48.92857,-13.63384,-29.45844,1002.211
3.339784622,-5.222515,-2.079099,-21.8416,0.9603944,0.01844654,0.05464963,-49.26511,-14.69046,-28.5556,1002.211
3.344839096,-4.793432,-1.654921,-21.90283,0.9691184,0.014438,0.04058143,-49.26511,-14.69046,-28.5556,1002.211
3.349894524,-4.916027,-0.9277589,-22.33148,0.9827665,0.01091485,0.03270283,-49.26511,-14.69046,-28.5556,1002.211
3.354948998,-4.85473,0.4053724,-23.55618,1.002313,0.02408445,0.05487541,-49.26511,-14.69046,-28.5556,1002.211
3.360003471,-4.60954,2.344472,-25.08706,1.0141,0.017501,0.05411792,-49.26511,-14.69046,-28.5556,1002.213
3.365058422,-3.444885,3.738201,-26.67917,1.012729,0.002066497,0.04320604,-49.26511,-14.69046,-28.5556,1002.213
3.370113373,-2.096339,4.768348,-27.72016,0.9883269,-0.005527536,0.03271114,-49.26511,-14.69046,-28.5556,1002.213
3.375168324,-1.483364,5.313719,-28.51622,0.9590692,-0.01278263,0.02610078,-49.26511,-14.69046,-28.5556,1002.213
3.380222797,-0.992983,6.646851,-28.94486,0.9394431,-0.01342767,0.01238606,-49.26511,-14.69046,-28.5556,1002.213
3.385278225,-0.01222191,7.192223,-29.25104,0.9315988,-0.01207879,0.01010073,-49.26511,-14.69046,-28.5556,1002.213
3.390332699,0.04907565,7.071029,-29.0061,0.9307482,-0.01328153,0.02444081,-48.20246,-15.40384,-29.01173,1002.213
3.395387173,0.1716708,7.798191,-28.39375,0.9241841,0.000337693,0.01671017,-48.20246,-15.40384,-29.01173,1002.213
3.400443077,1.091134,8.101175,-28.27128,0.9200186,0.02026818,0.01294729,-48.20246,-15.40384,-29.01173,1002.211
3.405497074,1.397622,7.979981,-28.14881,0.9267825,0.02575921,0.01206539,-48.20246,-15.40384,-29.01173,1002.211
3.410552025,0.7233489,7.192223,-27.84263,0.9482206,0.03384154,0.01877069,-48.20246,-15.40384,-29.01173,1002.211
3.415606499,-0.8703879,6.46506,-27.84263,0.9533728,0.05719364,0.02553927,-48.20246,-15.40384,-29.01173,1002.211
3.420660973,-2.648017,6.101479,-28.08757,0.9429245,0.06308598,0.00903141,-48.20246,-15.40384,-29.01173,1002.211
3.425716400,-4.670837,5.131929,-28.39375,0.9427758,0.05812483,-0.01742471,-48.20246,-15.40384,-29.01173,1002.211
3.430770874,-7.674417,4.041185,-28.69992,0.9406899,0.07214266,-0.01369747,-48.20246,-15.40384,-29.01173,1002.211
3.433298588,-8.777774,3.617007,-29.0061,0.9333518,0.0706109,-0.01797581,-48.20246,-15.40384,-29.01173,1002.211
3.438353062,-11.04578,2.526263,-29.74092,0.9168488,0.07156309,-0.004390509,-48.85597,-16.53176,-29.00447,1002.211
3.443408489,-12.51692,1.980891,-30.72068,0.9110062,0.05289969,0.03253318,-48.85597,-16.53176,-29.00447,1002.211
3.448462963,-14.04936,0.7083567,-31.4555,0.9083731,0.04654711,-0.001594879,-48.85597,-16.53176,-29.00447,1002.211
3.453517437,-16.99165,-0.5035807,-32.55773,0.9231603,0.05035726,0.02229985,-48.85597,-16.53176,-29.00447,1002.211
3.458572865,-19.38225,0.2235818,-33.35378,0.9409546,0.0616542,0.004704861,-48.85597,-16.53176,-29.00447,1002.211
3.463627339,-19.19836,-0.4429839,-34.33354,0.9481101,0.05400321,-0.02811247,-48.85597,-16.53176,-29.00447,1002.211
3.468682289,-19.38225,-1.776115,-35.19083,0.9574165,0.04792422,-0.03314247,-48.85597,-16.53176,-29.00447,1002.211
3.473736763,-20.6695,-2.26089,-35.98689,0.9803198,0.0536516,-0.02986214,-48.85597,-16.53176,-29.00447,1002.211
3.478792191,-21.46637,-3.04865,-36.41553,0.9774843,0.07195364,-0.05330788,-48.85597,-16.53176,-29.00447,1002.211
3.483846665,-22.69232,-4.442378,-36.96665,0.9736354,0.08697443,-0.0864025,-48.85597,-16.53176,-29.00447,1002.211
3.488901138,-25.02163,-5.9573,-36.96665,0.9595491,0.1060683,-0.1116368,-48.52113,-17.63382,-29.00504,1002.211
3.493956566,-27.35094,-7.532818,-37.21159,0.9674585,0.1412176,-0.109382,-48.52113,-17.63382,-29.00504,1002.211
3.499011517,-29.68024,-9.108337,-38.19135,0.9711472,0.1612087,-0.1074725,-48.52113,-17.63382,-29.00504,1002.211
3.504069328,-31.76436,-10.56266,-39.41605,0.9842086,0.17357,-0.1044093,-48.52113,-17.63382,-29.00504,1002.211
3.509120464,-34.40016,-12.19878,-40.33458,1.000972,0.1916151,-0.1189505,-48.52113,-17.63382,-29.00504,1002.211
3.514175892,-35.07443,-13.95609,-40.70199,1.004523,0.2151942,-0.1293962,-48.52113,-17.63382,-29.00504,1002.211
3.519233227,-35.8713,-15.6528,-41.13063,1.007197,0.23762,-0.1288515,-48.52113,-17.63382,-29.00504,1002.211
3.524285317,-36.17779,-17.28892,-41.74298,1.003171,0.264908,-0.1037035,-48.52113,-17.63382,-29.00504,1002.214
3.529340267,-37.09725,-19.4704,-42.90645,1.001179,0.2739919,-0.09531504,-48.52113,-17.63382,-29.00504,1002.214
3.534395218,-39.36526,-21.5307,-44.19238,1.001025,0.285227,-0.09837933,-47.75867,-18.72533,-29.4581,1002.214
3.539449692,-41.26548,-22.86383,-45.17214,0.9983951,0.2979109,-0.1037772,-47.75867,-18.72533,-29.4581,1002.214
3.544504166,-42.67533,-24.80293,-46.21314,1.009499,0.3126252,-0.09776313,-47.75867,-18.72533,-29.4581,1002.214
3.549559593,-43.4109,-26.13606,-47.43784,1.030359,0.3175343,-0.1074106,-47.75867,-18.72533,-29.4581,1002.214
3.554614067,-43.77869,-26.92382,-48.90748,1.049265,0.3395477,-0.09170977,-47.75867,-18.72533,-29.4581,1002.214
3.559669018,-44.69815,-27.71158,-50.56083,1.07086,0.3449582,-0.06879624,-47.75867,-18.72533,-29.4581,1002.214
3.564725399,-46.59837,-27.83277,-52.03047,1.112871,0.3556632,-0.04929241,-47.75867,-18.72533,-29.4581,1002.216
3.569778919,-48.86638,-27.83277,-52.64282,1.157961,0.353764,-0.02918052,-47.75867,-18.72533,-29.4581,1002.216
3.574833393,-51.19569,-26.92382,-52.76529,1.207089,0.3535932,0.01056603,-47.75867,-18.72533,-29.4581,1002.216
3.579888821,-53.77019,-26.19666,-52.21417,1.257666,0.3420531,0.03133855,-47.75867,-18.72533,-29.4581,1002.216
3.584943294,-54.99614,-24.80293,-51.60182,1.298326,0.3401428,0.04670451,-47.70971,-20.2032,-28.1084,1002.216
3.589997768,-55.79301,-23.10621,-49.94847,1.345682,0.3562268,0.07108205,-47.70971,-20.2032,-28.1084,1002.216
3.595052719,-55.05744,-21.4701,-49.02995,1.381893,0.3638624,0.09343522,-47.70971,-20.2032,-28.1084,1002.216
3.600107193,-52.42164,-18.98563,-47.56031,1.413373,0.3801741,0.1481301,-47.70971,-20.2032,-28.1084,1002.216
3.605162620,-47.64043,-15.04683,-46.02943,1.43926,0.3768458,0.207645,-47.70971,-20.2032,-28.1084,1002.214
3.610217094,-40.59121,-9.8355,-44.37609,1.459583,0.350015,0.2699665,-47.70971,-20.2032,-28.1084,1002.214
3.615272045,-33.05161,-4.19999,-42.17163,1.450944,0.2872921,0.3211169,-47.70971,-20.2032,-28.1084,1002.214
3.620326996,-23.67308,1.011341,-38.86494,1.401461,0.1925825,0.3455091,-47.70971,-20.2032,-28.1084,1002.214
3.625381946,-13.49769,5.798494,-34.51725,1.340351,0.09606872,0.378583,-47.70971,-20.2032,-28.1084,1002.214
3.630436420,-4.180456,10.64624,-29.37351,1.255818,0.00244527,0.417218,-47.70971,-20.2032,-28.1084,1002.214
3.635490894,3.175251,15.13041,-23.12753,1.165127,-0.08120741,0.432227,-47.31311,-21.30363,-28.10946,1002.214
3.640546322,8.875925,18.82682,-17.00403,1.075325,-0.1213939,0.4377995,-47.31311,-21.30363,-28.10946,1002.214
3.645600796,12.30859,21.55368,-11.1867,0.9976796,-0.154608,0.4477433,-47.31311,-21.30363,-28.10946,1002.214
3.650655746,13.77973,23.25039,-6.226666,0.9504704,-0.160015,0.458106,-47.31311,-21.30363,-28.10946,1002.214
3.655710697,13.47324,25.25009,-1.695274,0.9111853,-0.1322039,0.4697167,-47.31311,-21.30363,-28.10946,1002.214
3.660765648,10.04058,27.37098,1.244007,0.9082952,-0.08714051,0.4790281,-47.31311,-21.30363,-28.10946,1002.214
3.663292885,7.220891,29.0677,2.223768,0.9178813,-0.06473578,0.4895607,-47.31311,-21.30363,-28.10946,1002.214
3.668347359,0.3555635,32.94589,4.428228,0.9309546,-0.0105408,0.493687,-47.31311,-21.30363,-28.10946,1002.214
3.673402786,-6.141978,36.7029,6.020339,0.9541166,0.04937836,0.4854157,-47.31311,-21.30363,-28.10946,1002.214
3.678457260,-10.31021,39.61155,6.632689,0.9741926,0.09005504,0.4910473,-47.31311,-21.30363,-28.10946,1002.214
3.683512211,-12.57822,43.06557,6.816395,0.9886035,0.1121773,0.4938671,-46.56408,-22.02587,-29.01221,1002.214
3.688566685,-12.82341,45.73183,7.24504,0.9987884,0.1153427,0.4900212,-46.56408,-22.02587,-29.01221,1002.214
3.693622112,-11.41357,47.73153,7.306275,1.003345,0.1022653,0.4915608,-46.56408,-22.02587,-29.01221,1002.214
3.698676586,-9.022964,47.91332,8.10233,0.9984658,0.07884562,0.4570202,-46.56408,-22.02587,-29.01221,1002.214
3.703731060,-5.406408,46.70139,9.265796,1.00012,0.05138505,0.4405078,-46.56408,-22.02587,-29.01221,1002.214
3.708786011,-1.360768,45.00467,10.36803,0.9926802,0.013898,0.4324441,-46.56408,-22.02587,-29.01221,1002.214
3.713840961,2.562276,42.70199,11.7152,0.9815233,-0.04400295,0.4181517,-46.56408,-22.02587,-29.01221,1002.214
3.718895912,4.830286,40.09632,13.79719,0.9640424,-0.09825149,0.4121507,-46.56408,-22.02587,-29.01221,1002.214
3.723950386,6.73051,38.09663,16.36906,0.9508415,-0.1622074,0.3771374,-46.56408,-22.02587,-29.01221,1002.214
3.729005814,8.937222,36.33932,19.67575,0.9364309,-0.2338034,0.3634852,-46.56408,-22.02587,-29.01221,1002.214
3.734060287,12.86027,35.43037,23.90097,0.9143411,-0.3067747,0.3019953,-46.95792,-22.03933,-31.19047,1002.214
3.739114761,17.58018,34.88499,28.24866,0.89252,-0.3545748,0.2497602,-46.95792,-22.03933,-31.19047,1002.214
3.744169712,23.03566,33.91544,33.08622,0.8575205,-0.3769476,0.1729219,-46.95792,-22.03933,-31.19047,1002.214
3.749224663,28.18466,31.61276,37.43391,0.8244746,-0.3702846,0.07669536,-46.95792,-22.03933,-31.19047,1002.214
3.754279613,32.2916,27.79516,40.80184,0.8043315,-0.3366845,-0.01513848,-46.95792,-22.03933,-31.19047,1002.214
3.759334087,34.6209,22.82622,43.19,0.7752304,-0.2781706,-0.09189188,-46.95792,-22.03933,-31.19047,1002.214
3.764389515,35.78556,17.49369,43.98606,0.7708955,-0.2027779,-0.1603116,-46.95792,-22.03933,-31.19047,1002.214
3.769443989,36.45983,12.28236,44.04729,0.7459656,-0.1437343,-0.202142,-46.95792,-22.03933,-31.19047,1002.214
3.774502277,37.56319,7.737595,43.43494,0.7221934,-0.1035759,-0.248772,-46.95792,-22.03933,-31.19047,1002.214
3.779553413,41.17974,3.919991,42.63889,0.7038827,-0.05869139,-0.2139454,-46.22144,-22.0207,-31.6454,1002.214
3.784608841,45.53187,1.556713,42.02654,0.7006705,-0.03346371,-0.2127952,-46.22144,-22.0207,-31.6454,1002.214
3.789663315,50.98735,-0.3217901,41.35295,0.6674309,0.02596412,-0.192778,-46.22144,-22.0207,-31.6454,1002.214
3.794717789,56.74932,-2.018502,40.5569,0.7133475,0.03626258,-0.1738002,-46.22144,-22.0207,-31.6454,1002.214
3.799773216,62.14351,-3.654618,40.5569,0.7357697,0.08100543,-0.1115946,-46.22144,-22.0207,-31.6454,1002.214
3.804827690,69.9896,-3.23044,40.7406,0.7782856,0.06173338,-0.07179223,-46.22144,-22.0207,-31.6454,1002.214
3.809882641,79.18423,-1.230743,41.53666,0.7856619,0.07890442,-0.03934909,-46.22144,-22.0207,-31.6454,1002.212
3.814937115,88.19498,-0.1399995,42.39395,0.7854459,0.1073932,-0.02473918,-46.22144,-22.0207,-31.6454,1002.212
3.819992542,96.77663,2.223279,43.06753,0.7772486,0.1427218,-0.02184882,-46.22144,-22.0207,-31.6454,1002.212
3.825047016,105.4809,4.828944,43.25124,0.772549,0.1617764,-0.03281022,-46.22144,-22.0207,-31.6454,1002.212
3.830101490,113.6948,8.282966,43.25124,0.7836559,0.1779144,-0.02436626,-46.63446,-19.80857,-30.74808,1002.212
3.835156441,122.0925,13.00952,43.06753,0.796751,0.1787874,-0.03404294,-46.63446,-19.80857,-30.74808,1002.212
3.840211391,130.429,18.46324,42.82259,0.8267409,0.1613193,-0.03285536,-46.63446,-19.80857,-30.74808,1002.212
3.845266342,137.5395,23.67457,42.39395,0.8529696,0.1292308,-0.03487631,-46.63446,-19.80857,-30.74808,1002.212
3.850320816,140.8496,28.03755,41.7816,0.8809738,0.1136929,-0.03505717,-46.63446,-19.80857,-30.74808,1002.214
3.855376244,140.3592,29.91605,40.61813,0.8932217,0.1176412,-0.02358252,-46.63446,-19.80857,-30.74808,1002.214
3.860430717,136.4362,30.8856,38.84232,0.9116617,0.1020334,0.001699197,-46.63446,-19.80857,-30.74808,1002.214
3.865486145,131.4098,30.825,36.51538,0.9319633,0.1042444,0.04177877,-46.63446,-19.80857,-30.74808,1002.214
3.870540142,126.0156,30.27963,34.37216,0.9353549,0.09010949,0.08016653,-46.63446,-19.80857,-30.74808,1002.214
3.875595570,121.2957,29.55247,32.22893,0.9338189,0.07644772,0.1133466,-46.63446,-19.80857,-30.74808,1002.214
3.880650043,116.8209,28.21934,31.1267,0.9375727,0.09203361,0.1170585,-47.3796,-19.45716,-30.29377,1002.214
3.885704517,114.0626,27.79516,30.51435,0.9375442,0.1073208,0.1361187,-47.3796,-19.45716,-30.29377,1002.214
3.890759945,113.94,27.91636,31.24917,0.9273319,0.1579637,0.1537798,-47.3796,-19.45716,-30.29377,1002.216
3.893287182,114.6142,28.58292,32.04523,0.9233358,0.1771041,0.1705817,-47.3796,-19.45716,-30.29377,1002.216
3.898341656,116.4532,29.67366,34.6171,0.9051357,0.2017887,0.1895737,-47.3796,-19.45716,-30.29377,1002.216
3.903396606,118.2308,30.03724,37.18897,0.9045277,0.2624248,0.2016531,-47.3796,-19.45716,-30.29377,1002.216
3.908451557,119.089,29.43128,39.88331,0.9128748,0.3105305,0.2166806,-47.3796,-19.45716,-30.29377,1002.216
3.913506508,118.1082,28.9465,41.9653,0.9291288,0.3524098,0.2348264,-47.3796,-19.45716,-30.29377,1002.216
3.918560982,114.1851,29.73426,44.231,0.9330404,0.3767486,0.2717932,-47.3796,-19.45716,-30.29377,1002.216
3.923615456,107.2585,31.0068,46.06805,0.9376104,0.3831658,0.3039896,-47.3796,-19.45716,-30.29377,1002.216
3.928670883,97.8187,32.46112,47.66016,0.9482948,0.3810825,0.2937818,-47.34087,-20.93668,-29.90635,1002.216
3.933725834,87.09162,31.85515,49.06857,0.9320637,0.3800641,0.2766743,-47.34087,-20.93668,-29.90635,1002.218
3.938780308,74.83211,31.37037,49.92586,0.9307188,0.4078658,0.270691,-47.34087,-20.93668,-29.90635,1002.218
3.943835735,63.98244,30.46142,50.23203,0.9226609,0.4286539,0.2698592,-47.34087,-20.93668,-29.90635,1002.218
3.948890209,54.7265,30.64321,50.29327,0.9108475,0.4290986,0.2580134,-47.34087,-20.93668,-29.90635,1002.218
3.953944683,47.55469,30.76441,49.55844,0.9014698,0.4381662,0.2583325,-47.34087,-20.93668,-29.90635,1002.218
3.958999634,40.93455,31.43097,48.63992,0.908343,0.440598,0.2669468,-47.34087,-20.93668,-29.90635,1002.218
3.964054584,34.00793,32.8853,47.29275,0.9133621,0.4347187,0.2758463,-47.34087,-20.93668,-29.90635,1002.218
3.969109535,27.26519,34.40022,45.76188,0.9235306,0.4098644,0.2909174,-47.34087,-20.93668,-29.90635,1002.218
3.974164009,20.70635,36.27872,44.65965,0.9303203,0.3777363,0.3000905,-47.34087,-20.93668,-29.90635,1002.218
3.979218483,15.06698,37.91484,43.31247,0.9434791,0.3504414,0.3193801,-47.70194,-20.94484,-29.00528,1002.218
3.984273911,10.83745,39.73274,43.12877,0.9526114,0.3223482,0.3219311,-47.70194,-20.94484,-29.00528,1002.218
3.989328384,7.711271,40.88408,42.76136,0.9845811,0.3024848,0.3230391,-47.70194,-20.94484,-29.00528,1002.218
3.994383335,5.381964,42.39901,43.43494,0.9797379,0.2699902,0.3423666,-47.70194,-20.94484,-29.00528,1002.218
3.999438286,4.646393,43.61094,44.65965,0.9832261,0.2584949,0.3343815,-47.70194,-20.94484,-29.00528,1002.218
4.004493237,5.198071,44.4593,46.25175,1.003485,0.2284123,0.3209779,-47.70194,-20.94484,-29.00528,1002.218
4.009547710,7.159593,45.85303,47.84386,1.022299,0.2096918,0.3270268,-47.70194,-20.94484,-29.00528,1002.218
4.014602184,9.734091,46.82258,49.31351,1.042988,0.181155,0.3083921,-47.70194,-20.94484,-29.00528,1002.218
4.019657612,12.0634,47.18616,50.29327,1.072947,0.1637434,0.3057514,-47.70194,-20.94484,-29.00528,1002.218
4.024712086,11.9408,47.54974,50.47697,1.095645,0.1360884,0.2957377,-47.70194,-20.94484,-29.00528,1002.218
4.029767036,9.979281,47.97392,50.90562,1.107368,0.1272428,0.2834332,-47.75023,-19.46686,-30.29084,1002.218
4.034822464,8.017759,49.97361,51.02809,1.119622,0.1126127,0.2681042,-47.75023,-19.46686,-30.29084,1002.218
4.039876938,6.669213,52.09451,51.33426,1.121028,0.110843,0.2579921,-47.75023,-19.46686,-30.29084,1002.218
4.044931412,7.466081,55.00315,51.21179,1.121828,0.1188049,0.2471755,-47.75023,-19.46686,-30.29084,1002.218
4.049986362,9.979281,58.33598,51.08932,1.13037,0.1085063,0.2631107,-47.75023,-19.46686,-30.29084,1002.218
4.055041313,12.61508,61.72941,51.08932,1.119651,0.1077988,0.2646303,-47.75023,-19.46686,-30.29084,1002.218
4.060096264,15.18957,64.57747,50.90562,1.117213,0.1101285,0.2685426,-47.75023,-19.46686,-30.29084,1002.218
4.065150738,16.9672,66.57716,50.53821,1.107293,0.1269048,0.2733715,-47.75023,-19.46686,-30.29084,1002.218
4.070206165,17.88667,68.39507,50.3545,1.082886,0.13741,0.2891893,-47.75023,-19.46686,-30.29084,1002.218
4.075260639,18.19315,70.27357,50.29327,1.052909,0.1462865,0.2767719,-47.43744,-17.98073,-32.47746,1002.218
4.080315113,19.17392,71.06133,50.59944,1.021171,0.1813908,0.2655165,-47.43744,-17.98073,-32.47746,1002.218
4.085370064,20.15468,71.30372,50.29327,1.016019,0.2022757,0.2617872,-47.43744,-17.98073,-32.47746,1002.218
4.090425015,20.64506,71.24313,50.23203,1.006634,0.2142119,0.2655306,-47.43744,-17.98073,-32.47746,1002.218
4.095479965,20.70635,71.06133,50.1708,1.007248,0.2173216,0.2861902,-47.43744,-17.98073,-32.47746,1002.218
4.100534439,20.21597,71.36432,50.53821,1.005192,0.2208096,0.2781594,-47.43744,-17.98073,-32.47746,1002.218
4.105589867,20.46116,71.00073,50.23203,1.008411,0.2388534,0.2795451,-47.43744,-17.98073,-32.47746,1002.218
4.110644341,21.56452,71.42491,50.10956,0.9769797,0.2048752,0.2674886,-47.43744,-17.98073,-32.47746,1002.218
4.115698814,23.15826,70.94014,49.55844,0.9687895,0.228765,0.2542893,-47.43744,-17.98073,-32.47746,1002.218
4.120753765,23.64864,70.33417,49.00733,0.9684571,0.2118049,0.2490739,-47.43744,-17.98073,-32.47746,1002.218
4.123281479,24.5068,70.15238,48.33374,0.9596071,0.215095,0.2458899,-47.50394,-16.13426,-34.66178,1002.218
4.128336430,25.11978,70.33417,47.17028,0.9585664,0.2204336,0.2455567,-47.50394,-16.13426,-34.66178,1002.218
4.133390904,25.85535,70.09178,45.39447,0.955067,0.2171917,0.2301872,-47.50394,-16.13426,-34.66178,1002.218
4.138445377,26.46832,69.24342,43.19,0.9402807,0.2257577,0.2247997,-47.50394,-16.13426,-34.66178,1002.222
4.143500805,26.89741,68.51627,41.16925,0.933521,0.2212111,0.2276205,-47.50394,-16.13426,-34.66178,1002.222
4.148555279,27.26519,67.8497,38.78108,0.9164994,0.2169741,0.2295888,-47.50394,-16.13426,-34.66178,1002.222
4.153610230,26.46832,67.06194,36.51538,0.8857673,0.2073307,0.2181441,-47.50394,-16.13426,-34.66178,1002.222
4.158664703,25.24237,66.09239,34.12722,0.8621522,0.2196238,0.2129347,-47.50394,-16.13426,-34.66178,1002.222
4.163720131,23.95513,64.88045,31.55535,0.8374869,0.2325123,0.1991328,-47.50394,-16.13426,-34.66178,1002.222
4.168774605,22.23879,63.78971,28.43236,0.8084123,0.2501116,0.1902799,-47.50394,-16.13426,-34.66178,1002.222
4.173829079,20.46116,61.79,25.73802,0.7792794,0.2701991,0.1776607,-46.44601,-14.99955,-37.30272,1002.222
4.178884506,18.13186,59.66912,22.5538,0.7689676,0.2696491,0.1691266,-46.44601,-14.99955,-37.30272,1002.22
4.183938980,15.98644,57.24524,19.73699,0.7494207,0.2617161,0.1547472,-46.44601,-14.99955,-37.30272,1002.22
4.188993931,13.04416,54.27599,17.41006,0.735163,0.2664076,0.1487774,-46.44601,-14.99955,-37.30272,1002.22
4.194048405,10.28577,51.36734,15.32806,0.7155666,0.2638032,0.1359701,-46.44601,-14.99955,-37.30272,1002.22
4.199103832,6.9757,47.42855,13.24607,0.6954756,0.2640581,0.1265914,-46.44601,-14.99955,-37.30272,1002.22
4.204158306,3.665632,43.55035,11.7152,0.6728993,0.2757771,0.1285389,-46.44601,-14.99955,-37.30272,1002.22
4.209215164,0.1103732,39.42976,10.30679,0.6592668,0.2654651,0.1178732,-46.44601,-14.99955,-37.30272,1002.22
4.214268208,-3.260993,34.7032,8.898385,0.6403046,0.2559339,0.1135014,-46.44601,-14.99955,-37.30272,1002.22
4.219323158,-7.061442,29.85546,7.73492,0.6262592,0.242617,0.1080294,-46.44601,-14.99955,-37.30272,1002.218
4.224377632,-9.819833,24.94711,6.38775,0.615214,0.2230324,0.1023698,-45.38574,-13.55491,-39.04604,1002.218
4.229432106,-11.96525,20.52353,5.591694,0.6022112,0.2091344,0.1045333,-45.38574,-13.55491,-39.04604,1002.218
4.234487534,-13.0686,15.91817,4.795639,0.5939847,0.1926635,0.08935112,-45.38574,-13.55491,-39.04604,1002.218
4.239542008,-13.62028,11.07042,3.877113,0.5800973,0.1985346,0.0700027,-45.38574,-13.55491,-39.04604,1002.218
4.244596958,-14.84623,6.283269,2.713648,0.5672278,0.1991096,0.04811631,-45.38574,-13.55491,-39.04604,1002.218
4.249651909,-16.86905,0.9507443,0.9378318,0.5751408,0.1733533,0.0229705,-45.38574,-13.55491,-39.04604,1002.218
4.254706860,-19.19836,-3.472828,-0.8992191,0.5877939,0.1698473,0.01270796,-45.38574,-13.55491,-39.04604,1002.218
4.259761334,-21.95675,-7.835803,-2.552565,0.5988638,0.1689152,-0.008964279,-45.38574,-13.55491,-39.04604,1002.217
4.264815807,-24.65384,-12.38057,-4.022205,0.6164244,0.1621169,-0.02079314,-45.38574,-13.55491,-39.04604,1002.217
4.269871235,-27.41224,-16.92533,-5.308141,0.6338783,0.1702749,-0.02410208,-45.38574,-13.55491,-39.04604,1002.217
4.274925709,-31.02879,-21.28831,-6.042962,0.657881,0.1596052,-0.02938767,-45.04131,-12.80655,-39.8842,1002.217
4.279980660,-35.13573,-24.74233,-6.594077,0.6809773,0.1516447,-0.0216695,-45.04131,-12.80655,-39.8842,1002.217
4.285035610,-39.18137,-27.10561,-6.716547,0.6993285,0.1333449,-0.01177547,-45.04131,-12.80655,-39.8842,1002.217
4.290090561,-42.00106,-28.55993,-6.594077,0.7158199,0.1219789,0.02033501,-45.04131,-12.80655,-39.8842,1002.217
4.295145035,-42.79792,-29.89306,-6.410372,0.7279081,0.101982,0.03838392,-45.04131,-12.80655,-39.8842,1002.217
4.300199509,-41.75586,-30.55963,-5.981726,0.7448053,0.0850645,0.0516781,-45.04131,-12.80655,-39.8842,1002.217
4.305254936,-39.12007,-31.77157,-5.430611,0.7607666,0.07376708,0.07852904,-45.04131,-12.80655,-39.8842,1002.217
4.310309887,-34.52275,-32.31694,-5.246906,0.7810525,0.06458155,0.09964776,-45.04131,-12.80655,-39.8842,1002.217
4.315364361,-29.37376,-32.49873,-4.940731,0.7889373,0.06982233,0.1169415,-45.04131,-12.80655,-39.8842,1002.217
4.320418835,-24.34736,-33.1047,-5.430611,0.8001742,0.08238642,0.1367835,-45.03243,-12.80512,-39.05022,1002.217
4.325474262,-20.36301,-33.52888,-6.471607,0.8075165,0.08486258,0.1430008,-45.03243,-12.80512,-39.05022,1002.217
4.330528736,-17.42073,-33.89246,-7.941248,0.8324357,0.09812511,0.1656038,-45.03243,-12.80512,-39.05022,1002.217
4.335583687,-16.19478,-33.65007,-9.839534,0.8530635,0.09588446,0.1782781,-45.03243,-12.80512,-39.05022,1002.217
4.340638638,-16.31738,-32.74112,-11.37041,0.8801412,0.08547313,0.1921202,-45.03243,-12.80512,-39.05022,1002.217
4.345693588,-17.35943,-31.95336,-12.4114,0.8956245,0.0651029,0.2067762,-45.03243,-12.80512,-39.05022,1002.217
4.350748062,-19.01447,-30.98381,-13.26869,0.9058946,0.04148866,0.2367192,-45.03243,-12.80512,-39.05022,1002.217
4.353275299,-19.81134,-30.43844,-13.14622,0.9125231,0.03203451,0.2589177,-45.03243,-12.80512,-39.05022,1002.217
4.358330727,-20.60821,-28.68113,-12.35017,0.8981024,0.004255745,0.3090959,-45.03243,-12.80512,-39.05022,1002.217
4.363385201,-20.8534,-25.65128,-10.94176,0.8883776,-0.01214054,0.3523377,-45.03243,-12.80512,-39.05022,1002.217
4.368440151,-21.46637,-23.4092,-9.349653,0.861833,-0.01319139,0.3899047,-45.03243,-12.80512,-39.05022,1002.217
4.373494625,-22.38583,-22.07607,-8.369893,0.8642384,-0.01923223,0.4390401,-45.77279,-12.45293,-38.14684,1002.217
4.378550053,-24.10217,-20.86413,-7.880013,0.8755994,-0.03161545,0.5003772,-45.77279,-12.45293,-38.14684,1002.217
4.383604527,-26.61537,-20.13697,-8.002482,0.9060425,-0.04992414,0.5585108,-45.77279,-12.45293,-38.14684,1002.217
4.388659000,-30.17063,-18.74324,-8.553598,0.9455333,-0.05812157,0.6024533,-45.77279,-12.45293,-38.14684,1002.217
4.393714428,-33.84848,-17.5313,-9.349653,0.9746147,-0.07858945,0.607882,-45.77279,-12.45293,-38.14684,1002.217
4.398768902,-37.15855,-16.62235,-9.962004,1.015268,-0.09857783,0.5954996,-45.77279,-12.45293,-38.14684,1002.217
4.403823853,-39.36526,-16.44056,-10.81929,1.022473,-0.1106058,0.5625706,-45.77279,-12.45293,-38.14684,1002.217
4.408878327,-39.73304,-17.89488,-11.98276,1.084128,-0.1578073,0.5737144,-45.77279,-12.45293,-38.14684,1002.217
4.413933754,-42.30754,-17.16772,-10.20694,1.096247,-0.1854796,0.5843868,-45.77279,-12.45293,-38.14684,1002.217
4.418988228,-43.59479,-16.01638,-8.553598,1.068601,-0.1967888,0.5905844,-46.12112,-12.83046,-36.86023,1002.217
4.424042702,-43.3496,-13.7137,-7.267662,1.022905,-0.1718302,0.5897357,-46.12112,-12.83046,-36.86023,1002.218
4.429098129,-42.24625,-11.89579,-6.410372,0.9793161,-0.1328769,0.5667213,-46.12112,-12.83046,-36.86023,1002.218
4.434152603,-40.40732,-10.92624,-6.410372,0.94322,-0.1007725,0.5554308,-46.12112,-12.83046,-36.86023,1002.218
4.439207554,-38.3232,-10.56266,-7.145192,0.9179756,-0.07201371,0.5535278,-46.12112,-12.83046,-36.86023,1002.218
4.444262028,-36.66817,-9.653709,-8.614833,0.9124619,-0.0580383,0.5558501,-46.12112,-12.83046,-36.86023,1002.218
4.449317455,-35.62611,-7.956997,-9.900768,0.8998654,-0.0261111,0.5529506,-46.12112,-12.83046,-36.86023,1002.218
4.454371929,-35.44221,-5.896703,-11.12547,0.8830541,-0.003640204,0.5589469,-46.12112,-12.83046,-36.86023,1002.218
4.459426403,-36.05519,-4.078796,-11.98276,0.8636956,-0.01763519,0.5597317,-46.12112,-12.83046,-36.86023,1002.218
4.464481831,-36.23908,-1.776115,-12.04399,0.8445332,-0.04199148,0.5703052,-46.12112,-12.83046,-36.86023,1002.222
4.469536781,-35.62611,-0.2611932,-11.43164,0.8277701,-0.08332705,0.6129797,-46.50041,-12.47012,-36.85792,1002.222
4.474591255,-34.27756,2.283876,-10.39065,0.813691,-0.110349,0.64546,-46.50041,-12.47012,-36.85792,1002.222
4.479645729,-33.17421,4.041185,-8.982244,0.8035505,-0.1468837,0.6680863,-46.50041,-12.47012,-36.85792,1002.222
4.484701157,-33.11291,4.586557,-7.635072,0.7946871,-0.169238,0.6877096,-46.50041,-12.47012,-36.85792,1002.222
4.489755631,-34.89054,4.041185,-6.471607,0.8036075,-0.1774198,0.6926836,-46.50041,-12.47012,-36.85792,1002.222
4.494810581,-38.26191,2.708054,-5.798021,0.8207433,-0.1786313,0.6972784,-46.50041,-12.47012,-36.85792,1002.222
4.499865532,-42.61403,1.193132,-5.369376,0.8386627,-0.1694704,0.6925543,-46.50041,-12.47012,-36.85792,1002.222
4.504920483,-45.8628,-0.01880575,-5.369376,0.8548645,-0.1551061,0.6630835,-46.50041,-12.47012,-36.85792,1002.222
4.509974957,-46.78226,-1.654921,-6.042962,0.8760127,-0.1474384,0.6319594,-46.50041,-12.47012,-36.85792,1002.222
4.515029431,-45.55631,-3.533424,-6.655312,0.8916122,-0.1433446,0.5725507,-46.50041,-12.47012,-36.85792,1002.222
4.520084858,-43.2883,-5.836106,-7.818777,0.9099694,-0.1107923,0.5334678,-46.89722,-11.74117,-37.69022,1002.222
4.525139332,-41.38808,-8.078191,-9.165948,0.9242493,-0.09747232,0.5063823,-46.89722,-11.74117,-37.69022,1002.222
4.530194283,-41.26548,-10.38087,-11.1867,0.9284121,-0.08934785,0.4888356,-46.89722,-11.74117,-37.69022,1002.222
4.535248757,-41.87846,-12.19878,-12.47264,0.9498224,-0.08930714,0.4800167,-46.89722,-11.74117,-37.69022,1002.222
4.540304184,-43.65609,-13.7137,-13.20746,0.9633346,-0.08448495,0.4670852,-46.89722,-11.74117,-37.69022,1002.222
4.545358658,-46.35318,-15.6528,-13.14622,0.9641227,-0.07745327,0.4533726,-46.89722,-11.74117,-37.69022,1002.222
4.550413132,-49.41806,-17.83429,-12.47264,0.9633308,-0.05928442,0.4413942,-46.89722,-11.74117,-37.69022,1002.224
4.555468559,-53.09591,-21.71249,-11.24794,0.9659809,-0.05871424,0.4064347,-46.89722,-11.74117,-37.69022,1002.224
4.560523510,-55.85431,-26.31785,-9.410889,0.9718447,-0.07432921,0.3839597,-46.89722,-11.74117,-37.69022,1002.224
4.565577984,-57.38675,-30.74142,-6.777782,0.9807323,-0.08911476,0.3748824,-47.27152,-11.00856,-36.40548,1002.224
4.570632458,-56.34468,-33.95306,-3.34862,0.9803417,-0.1035867,0.3659007,-47.27152,-11.00856,-36.40548,1002.224
4.575687885,-52.72813,-36.25574,0.3867165,0.9688058,-0.08988882,0.346729,-47.27152,-11.00856,-36.40548,1002.224
4.580742359,-47.88562,-37.46768,4.060818,0.9495609,-0.05037509,0.3163174,-47.27152,-11.00856,-36.40548,1002.224
4.583269596,-45.06593,-38.07365,5.775399,0.9292395,-0.03969525,0.2928433,-47.27152,-11.00856,-36.40548,1002.224
4.588324547,-38.56839,-38.74021,8.59221,0.899298,-0.005216544,0.2604898,-47.27152,-11.00856,-36.40548,1002.224
4.593379497,-32.07085,-39.64916,10.24556,0.86834,0.002697473,0.2461422,-47.27152,-11.00856,-36.40548,1002.224
4.598434448,-24.71514,-39.89155,10.79667,0.8360047,0.008518815,0.2398933,-47.27152,-11.00856,-36.40548,1002.224
4.603488922,-16.68516,-40.43692,10.98038,0.8101934,0.01079264,0.2512064,-47.27152,-11.00856,-36.40548,1002.224
4.608544350,-8.409988,-40.43692,10.12309,0.8246415,0.009994801,0.2247181,-47.27152,-11.00856,-36.40548,1002.224
4.613598823,0.7233489,-42.19423,8.653445,0.8765315,-0.002704392,0.1616669,-47.27152,-11.00856,-36.40548,1002.224
4.618653774,10.16317,-44.31512,7.0001,0.9484635,-0.02409879,0.1518256,-47.6326,-11.01672,-35.50441,1002.224
4.623710155,18.99002,-45.40587,5.407989,1.025358,-0.05460024,0.1388335,-47.6326,-11.01672,-35.50441,1002.224
4.628763676,25.48756,-47.22377,4.305758,1.075746,-0.09149805,0.09768289,-47.6326,-11.01672,-35.50441,1002.224
4.633818149,28.30725,-51.28376,3.019823,1.105264,-0.1123755,0.03319905,-47.6326,-11.01672,-35.50441,1002.224
4.638872623,28.42985,-57.10106,0.5091866,1.156427,-0.1269827,-0.0006898241,-47.6326,-11.01672,-35.50441,1002.224
4.643928051,24.26161,-61.76702,-3.10368,1.226301,-0.1263177,0.008720383,-47.6326,-11.01672,-35.50441,1002.224
4.648982525,18.99002,-63.03955,-6.716547,1.299637,-0.1299207,0.08022735,-47.6326,-11.01672,-35.50441,1002.224
4.654037476,14.6379,-60.2521,-8.431129,1.346744,-0.1622954,0.1885938,-47.6326,-11.01672,-35.50441,1002.224
4.659091949,13.28935,-53.40466,-7.267662,1.355359,-0.1717003,0.340517,-47.6326,-11.01672,-35.50441,1002.224
4.664147377,14.76049,-45.10288,-4.389616,1.309165,-0.1490353,0.4602605,-47.99345,-10.65339,-33.76998,1002.224
4.669201851,19.11262,-38.922,-2.062685,1.242321,-0.06227566,0.5310804,-47.99345,-10.65339,-33.76998,1002.222
4.674256325,22.1775,-35.28619,-0.8992191,1.1792,0.0653199,0.5765713,-47.99345,-10.65339,-33.76998,1002.222
4.679311752,21.93231,-33.77127,-2.123919,1.142779,0.1813005,0.5856083,-47.99345,-10.65339,-33.76998,1002.222
4.684366226,16.29293,-34.74082,-5.124436,1.141162,0.2638418,0.5633049,-47.99345,-10.65339,-33.76998,1002.222
4.689421177,4.891583,-38.13424,-8.063718,1.125896,0.2908725,0.4612041,-47.99345,-10.65339,-33.76998,1002.222
4.694475651,-9.145559,-43.22438,-8.921008,1.062209,0.2363076,0.2885469,-47.99345,-10.65339,-33.76998,1002.222
4.699531078,-21.65026,-50.25362,-7.451367,0.9564002,0.1883832,0.1078391,-47.99345,-10.65339,-33.76998,1002.222
4.704585552,-30.17063,-55.82853,-4.45085,0.8449974,0.1798143,-0.04309047,-47.99345,-10.65339,-33.76998,1002.222
4.709640026,-33.11291,-57.22226,-1.940215,0.7859256,0.1905774,-0.1528506,-47.99345,-10.65339,-33.76998,1002.221
4.714699745,-33.3581,-55.52555,0.2642465,0.728593,0.1932403,-0.2393741,-48.72107,-10.67058,-32.48106,1002.221
4.719750404,-35.56481,-54.13182,1.488947,0.7012151,0.1504508,-0.3081858,-48.72107,-10.67058,-32.48106,1002.221
4.724804878,-42.73663,-54.01062,3.019823,0.6930231,0.09920111,-0.3079745,-48.72107,-10.67058,-32.48106,1002.221
4.729859352,-55.67041,-55.34375,4.366993,0.7252003,0.03852508,-0.278223,-48.72107,-10.67058,-32.48106,1002.221
4.734914780,-69.58495,-57.16166,6.38775,0.7758605,-0.00455191,-0.2309638,-48.72107,-10.67058,-32.48106,1002.221
4.739969253,-78.77959,-59.64613,7.61245,0.82271,-0.02220546,-0.1964276,-48.72107,-10.67058,-32.48106,1002.221
4.745024204,-79.94424,-62.1306,7.551215,0.8620883,-0.005438554,-0.129827,-48.72107,-10.67058,-32.48106,1002.221
4.750078678,-76.0212,-64.49388,6.020339,0.9263619,0.007020389,-0.06979497,-48.72107,-10.67058,-32.48106,1002.221
4.755134106,-69.95274,-64.97865,4.366993,0.9972455,0.01621037,-0.04342128,-48.72107,-10.67058,-32.48106,1002.223
4.760188580,-62.16795,-62.85777,2.407473,1.016848,0.0002364058,-0.05741765,-48.72107,-10.67058,-32.48106,1002.223
4.765243053,-55.85431,-60.73688,1.060302,1.038985,-0.02824492,-0.07797964,-50.11084,-11.44565,-31.18551,1002.223
4.770298481,-52.23775,-57.70703,-0.8992191,1.040185,-0.06815437,-0.108688,-50.11084,-11.44565,-31.18551,1002.223
4.775352955,-51.31829,-54.73779,-2.49133,1.034047,-0.1076926,-0.1407537,-50.11084,-11.44565,-31.18551,1002.223
4.780407906,-51.37958,-52.5563,-3.654795,1.024423,-0.132409,-0.1594836,-50.11084,-11.44565,-31.18551,1002.223
4.785462379,-50.64401,-50.92018,-5.124436,1.022763,-0.08831111,-0.1818061,-50.11084,-11.44565,-31.18551,1002.223
4.790517807,-46.65967,-47.58735,-7.512602,1.00541,-0.1560893,-0.1287867,-50.11084,-11.44565,-31.18551,1002.223
4.795572281,-42.98182,-44.31512,-6.961487,0.9498767,-0.1844508,-0.1557927,-50.11084,-11.44565,-31.18551,1002.221
4.800626755,-39.61045,-43.83035,-7.696307,0.9585347,-0.1764352,-0.1604584,-50.11084,-11.44565,-31.18551,1002.221
4.805682182,-33.17421,-44.37572,-8.186188,0.972278,-0.1748983,-0.1485804,-50.11084,-11.44565,-31.18551,1002.221
4.810736656,-27.28964,-44.6787,-8.737303,0.9651006,-0.1748238,-0.1298393,-50.47059,-10.33924,-27.72021,1002.221
4.813264370,-24.53125,-44.7393,-8.921008,0.9729398,-0.17902,-0.1324138,-50.47059,-10.33924,-27.72021,1002.221
4.818318844,-21.46637,-43.76975,-9.227183,0.9804017,-0.172957,-0.10552,-50.47059,-10.33924,-27.72021,1002.221
4.823374271,-20.91469,-42.07304,-9.104713,0.9807607,-0.161283,-0.104748,-50.47059,-10.33924,-27.72021,1002.221
4.828428745,-22.01805,-40.43692,-9.043478,0.9982424,-0.15032,-0.1003258,-50.47059,-10.33924,-27.72021,1002.221
4.833483219,-22.63103,-39.04319,-8.308658,0.9821997,-0.1322069,-0.1274815,-50.47059,-10.33924,-27.72021,1002.221
4.838538170,-22.69232,-39.89155,-7.512602,0.9570149,-0.1168888,-0.1416956,-50.47059,-10.33924,-27.72021,1002.221
4.843593121,-23.73438,-41.83065,-6.655312,0.9484007,-0.09503123,-0.1496762,-50.47059,-10.33924,-27.72021,1002.221
4.848648071,-25.45071,-43.58796,-6.165431,0.9469638,-0.03849466,-0.1247668,-50.47059,-10.33924,-27.72021,1002.221
4.853702545,-27.41224,-43.40617,-5.553081,0.9615269,0.01806037,-0.1138921,-50.47059,-10.33924,-27.72021,1002.221
4.858757973,-29.49635,-42.01244,-5.246906,0.9736621,0.06169327,-0.120558,-50.47059,-10.33924,-27.72021,1002.221
4.863812447,-31.09009,-40.8611,-5.308141,0.962079,0.08642844,-0.1293949,-51.58158,-9.996757,-26.8139,1002.221
4.868866920,-32.31604,-40.31573,-5.981726,0.952343,0.09096166,-0.1191339,-51.58158,-9.996757,-26.8139,1002.221
4.873921871,-33.97107,-39.77036,-6.655312,0.9566529,0.07504792,-0.09085384,-51.58158,-9.996757,-26.8139,1002.221
4.878977299,-36.72947,-39.22499,-6.777782,0.9617043,0.07386947,-0.0708239,-51.58158,-9.996757,-26.8139,1002.221
4.884031773,-40.65251,-37.89185,-7.022722,0.9545333,0.06060216,-0.07109329,-51.58158,-9.996757,-26.8139,1002.221
4.889086246,-43.83998,-37.0435,-7.206427,0.9607018,0.06961557,-0.0804976,-51.58158,-9.996757,-26.8139,1002.221
4.894141197,-46.41448,-35.95275,-7.696307,0.9747998,0.07569395,-0.07904013,-51.58158,-9.996757,-26.8139,1002.221
4.899196148,-48.80508,-34.49843,-7.206427,0.9723254,0.08094871,-0.07553191,-51.58158,-9.996757,-26.8139,1002.221
4.904251099,-50.64401,-33.46828,-6.287901,0.9500977,0.1019807,-0.0776598,-51.58158,-9.996757,-26.8139,1002.221
4.909305572,-53.4024,-33.1047,-5.308141,0.9294052,0.1148147,-0.08288307,-51.57182,-9.623724,-25.0824,1002.221
4.914361000,-57.99972,-34.07425,-4.573321,0.9196166,0.1161131,-0.0841938,-51.57182,-9.623724,-25.0824,1002.219
4.919415474,-64.06818,-34.9832,-4.389616,0.9155247,0.09881192,-0.07118972,-51.57182,-9.623724,-25.0824,1002.219
4.924469948,-70.50442,-36.49813,-4.45085,0.916274,0.07881781,-0.06739616,-51.57182,-9.623724,-25.0824,1002.219
4.929525375,-75.34692,-37.40708,-4.512086,0.9110157,0.07232487,-0.06272393,-51.57182,-9.623724,-25.0824,1002.219
4.934579849,-78.35051,-38.13424,-5.246906,0.9329258,0.02811643,-0.0731509,-51.57182,-9.623724,-25.0824,1002.219
4.939634800,-81.41539,-37.52827,-5.246906,0.9569821,-0.006894103,-0.04506411,-51.57182,-9.623724,-25.0824,1002.219
4.944689274,-83.92859,-36.80111,-5.614316,0.9694604,-0.02908055,-0.0428734,-51.57182,-9.623724,-25.0824,1002.219
4.949744701,-84.90935,-35.52858,-6.471607,0.9747226,-0.06254658,-0.04377366,-51.57182,-9.623724,-25.0824,1002.219
4.954799175,-84.78675,-34.61962,-7.696307,0.9742991,-0.07314903,-0.05122041,-51.57182,-9.623724,-25.0824,1002.219
4.959853649,-84.48026,-34.55902,-8.492363,0.9793527,-0.0886137,-0.05213996,-51.54473,-9.990786,-23.34965,1002.223
4.964908600,-85.03194,-34.19545,-8.614833,0.9842147,-0.08658455,-0.0516556,-51.54473,-9.990786,-23.34965,1002.223
4.969963551,-83.37691,-33.28649,-8.737303,0.995971,-0.09216002,-0.05478095,-51.54473,-9.990786,-23.34965,1002.223
4.975018501,-81.35409,-32.37754,-8.676068,0.99932,-0.1133568,-0.03237114,-51.54473,-9.990786,-23.34965,1002.223
4.980072975,-80.55722,-31.1656,-9.288419,0.9796379,-0.1309983,-0.01587706,-51.54473,-9.990786,-23.34965,1002.223
4.985128403,-80.98631,-30.74142,-10.20694,0.9793278,-0.1594255,-0.03526798,-51.54473,-9.990786,-23.34965,1002.223
4.990182877,-80.80241,-30.19605,-10.88053,0.9801546,-0.1809917,-0.02385504,-51.54473,-9.990786,-23.34965,1002.223
4.995237827,-79.69905,-29.77187,-11.79906,1.000532,-0.2051051,-0.01317041,-51.54473,-9.990786,-23.34965,1002.223
5.000292301,-78.47311,-28.37814,-12.04399,1.012854,-0.2079584,-0.002348072,-51.54473,-9.990786,-23.34965,1002.223
5.005347729,-76.26639,-26.86322,-11.73782,0.9831342,-0.1710349,-0.002565011,-51.54473,-9.990786,-23.34965,1002.223
5.010402203,-74.91785,-26.49964,-12.16646,0.9301316,-0.1310032,0.02097607,-52.29444,-9.26866,-22.51105,1002.223
5.015456676,-73.508,-26.19666,-12.77882,0.9469365,-0.09494375,0.03849001,-52.29444,-9.26866,-22.51105,1002.223
5.020512104,-72.46594,-24.80293,-13.14622,0.9567631,-0.03636582,0.07100482,-52.29444,-9.26866,-22.51105,1002.223
5.025566578,-72.15945,-23.4092,-13.26869,1.002104,-0.02591399,0.07898065,-52.29444,-9.26866,-22.51105,1002.223
5.030621529,-72.03686,-20.37936,-12.10523,1.014666,-0.007352447,0.08986621,-52.29444,-9.26866,-22.51105,1002.223
5.035676003,-71.79167,-17.83429,-11.30917,0.9744269,0.008021862,0.08584978,-52.29444,-9.26866,-22.51105,1002.223
5.040731430,-72.03686,-16.50116,-10.63559,0.9492362,-0.007555316,0.08760704,-52.29444,-9.26866,-22.51105,1002.222
5.045785904,-73.14021,-14.98623,-9.839534,0.9268064,-0.01657905,0.07753591,-52.29444,-9.26866,-22.51105,1002.222
5.048313141,-73.75319,-14.38027,-9.533359,0.9321961,-0.02032735,0.07451718,-52.29444,-9.26866,-22.51105,1002.222
5.053368092,-74.85654,-12.56236,-9.104713,0.9233061,-0.01743875,0.06557831,-52.29444,-9.26866,-22.51105,1002.222
5.058423042,-75.89861,-12.19878,-8.737303,0.9055787,-0.01794855,0.04514653,-51.9268,-8.516542,-21.16803,1002.222
5.063477993,-76.51158,-12.86534,-8.553598,0.9143242,-0.01009546,0.05148723,-51.9268,-8.516542,-21.16803,1002.222
5.068532467,-78.5957,-13.04713,-8.676068,0.9215681,-0.01076933,0.0403903,-51.9268,-8.516542,-21.16803,1002.222
5.073589802,-79.57646,-12.56236,-9.043478,0.9504967,-0.03190612,0.02521706,-51.9268,-8.516542,-21.16803,1002.222
5.078642368,-79.51516,-12.68355,-9.962004,0.9581417,-0.07569403,0.001530529,-51.9268,-8.516542,-21.16803,1002.222
5.083696842,-79.33127,-13.04713,-10.88053,0.9669793,-0.1217693,0.002191029,-51.9268,-8.516542,-21.16803,1002.222
5.088751793,-79.14738,-13.16833,-11.73782,0.9516981,-0.1564838,-0.005728067,-51.9268,-8.516542,-21.16803,1002.222
5.093806744,-77.79883,-13.04713,-12.16646,0.9373086,-0.187691,-0.0193115,-51.9268,-8.516542,-21.16803,1002.222
5.098861694,-75.53082,-13.22892,-12.47264,0.9344515,-0.2064441,-0.03795372,-51.9268,-8.516542,-21.16803,1002.222
5.103916168,-72.83372,-13.47131,-13.08499,0.9202052,-0.1965371,-0.03469475,-51.9268,-8.516542,-21.16803,1002.222
5.108971596,-69.03328,-13.41072,-12.90129,0.9125639,-0.1632295,-0.02611597,-52.65441,-8.533735,-19.8791,1002.222
5.114026070,-65.29413,-13.41072,-13.26869,0.9149393,-0.1378323,0.003232241,-52.65441,-8.533735,-19.8791,1002.222
5.119080544,-62.16795,-14.13788,-13.63611,0.9048393,-0.08263681,0.04207325,-52.65441,-8.533735,-19.8791,1002.224
5.124135494,-58.5514,-14.13788,-14.92204,0.91264,-0.04252535,0.03775262,-52.65441,-8.533735,-19.8791,1002.224
5.129190445,-56.71247,-15.77399,-15.84057,0.9047881,-0.01168371,0.0156305,-52.65441,-8.533735,-19.8791,1002.224
5.134245396,-56.28339,-16.56175,-16.75909,0.9016888,0.03471964,8.273451E-05,-52.65441,-8.533735,-19.8791,1002.224
5.139299870,-57.75453,-17.77369,-17.55515,0.873389,0.05985109,-0.02342748,-52.65441,-8.533735,-19.8791,1002.224
5.144355297,-59.89994,-20.13697,-18.90232,0.8636053,0.06399686,-0.01987835,-52.65441,-8.533735,-19.8791,1002.224
5.149409771,-63.02612,-23.22741,-20.49443,0.8692046,0.04510162,-0.01849648,-52.65441,-8.533735,-19.8791,1002.224
5.154464722,-65.78451,-26.49964,-22.39272,0.9050718,0.01246954,-0.03737874,-52.65441,-8.533735,-19.8791,1002.224
5.159519196,-68.78809,-29.40829,-24.291,0.9151794,-0.01750835,-0.0377574,-52.27512,-8.894079,-19.88141,1002.224
5.164574623,-71.30128,-32.01396,-26.18929,0.9136765,-0.06455646,-0.04995022,-52.27512,-8.894079,-19.88141,1002.224
5.169629097,-71.97556,-34.13485,-28.57745,0.8815077,-0.06713697,-0.04731794,-52.27512,-8.894079,-19.88141,1002.224
5.174683571,-68.91068,-36.31634,-32.00661,0.8799399,-0.1193017,-0.07543905,-52.27512,-8.894079,-19.88141,1002.224
5.179738998,-66.33618,-38.67962,-32.8639,0.907819,-0.1431386,-0.04135938,-52.27512,-8.894079,-19.88141,1002.224
5.184793472,-64.31336,-40.43692,-33.29255,0.9401394,-0.1931687,-0.04006387,-52.27512,-8.894079,-19.88141,1002.224
5.189848423,-65.66191,-43.83035,-32.43526,0.9658637,-0.2080974,-0.01866378,-52.27512,-8.894079,-19.88141,1002.224
5.194902897,-67.25565,-45.64825,-31.57797,0.9976524,-0.2028693,-0.0035113,-52.27512,-8.894079,-19.88141,1002.224
5.199958324,-67.56213,-46.19363,-30.84315,0.9851333,-0.1472824,0.03871379,-52.27512,-8.894079,-19.88141,1002.224
5.205012798,-66.15229,-46.6784,-31.02685,0.9508737,-0.1386924,0.04021347,-52.9895,-9.652029,-18.97616,1002.224
5.210067272,-64.06818,-47.34497,-30.90438,0.9407057,-0.1371287,0.05327567,-52.9895,-9.652029,-18.97616,1002.224
5.215122700,-62.96482,-47.34497,-30.90438,0.9122235,-0.1306635,0.04126163,-52.9895,-9.652029,-18.97616,1002.224
5.220177174,-63.82299,-48.43571,-30.53697,0.9375046,-0.1181103,0.04660797,-52.9895,-9.652029,-18.97616,1002.224
5.225232124,-64.12947,-48.07213,-30.90438,0.9426767,-0.107649,0.03677112,-52.9895,-9.652029,-18.97616,1002.224
5.230286598,-65.9071,-49.64765,-31.27179,1.004944,-0.1170256,0.05748811,-52.9895,-9.652029,-18.97616,1002.224
5.235342026,-67.86862,-50.37481,-30.96562,0.9876083,-0.08545057,0.0723383,-52.9895,-9.652029,-18.97616,1002.224
5.240396500,-68.97198,-49.82944,-32.37402,1.009774,-0.05784732,0.07618155,-52.9895,-9.652029,-18.97616,1002.224
5.245450974,-70.56572,-48.49631,-31.76167,1.003968,-0.0518601,0.09170872,-52.9895,-9.652029,-18.97616,1002.226
5.250505924,-74.24357,-48.85989,-31.02685,1.027426,-0.0362497,0.1182152,-52.9895,-9.652029,-18.97616,1002.226
5.255561352,-81.41539,-48.7387,-30.53697,1.055873,-0.005515549,0.1809653,-52.57038,-10.74882,-16.86018,1002.226
5.260615826,-88.21941,-46.25422,-28.69992,1.045906,0.02420099,0.1990498,-52.57038,-10.74882,-16.86018,1002.226
5.265670300,-94.71696,-44.61811,-26.00558,1.036032,0.06183905,0.2407938,-52.57038,-10.74882,-16.86018,1002.226
5.270725727,-102.2566,-41.46707,-23.92359,1.09783,0.04008012,0.3081184,-52.57038,-10.74882,-16.86018,1002.226
5.275780201,-111.5738,-37.40708,-20.43319,1.094362,0.03443773,0.3558831,-52.57038,-10.74882,-16.86018,1002.226
5.278307438,-116.2937,-35.52858,-18.65738,1.082454,0.02319334,0.3772538,-52.57038,-10.74882,-16.86018,1002.226
5.283362389,-125.1818,-31.52918,-14.6771,1.09756,-0.01211101,0.4465905,-52.57038,-10.74882,-16.86018,1002.224
5.288417339,-134.3152,-26.19666,-9.900768,1.109856,-0.03106574,0.4929104,-52.57038,-10.74882,-16.86018,1002.224
5.293472290,-142.7743,-20.80353,-5.308141,1.154588,-0.03416568,0.5278366,-52.57038,-10.74882,-16.86018,1002.224
5.298526764,-148.291,-12.74415,-1.266629,1.234517,-0.05433708,0.5438035,-52.57038,-10.74882,-16.86018,1002.224
5.303581238,-151.0494,-4.442378,2.897353,1.327591,-0.07039364,0.561187,-52.90548,-11.86711,-15.95723,1002.224
5.308636665,-152.8271,4.222976,7.796155,1.406101,-0.08829486,0.5863214,-52.90548,-11.86711,-15.95723,1002.224
5.313691616,-155.1564,14.94862,12.38878,1.501363,-0.05527929,0.6441891,-52.90548,-11.86711,-15.95723,1002.224
5.318746090,-157.4857,27.67397,17.53252,1.513999,-0.002615966,0.6525893,-52.90548,-11.86711,-15.95723,1002.224
5.323801518,-158.7116,39.73274,22.18639,1.483914,0.07069056,0.6595243,-52.90548,-11.86711,-15.95723,1002.226
5.328855991,-158.2825,51.06436,26.16666,1.469278,0.1531691,0.6579288,-52.90548,-11.86711,-15.95723,1002.226
5.333910465,-155.2177,62.57777,29.7183,1.389643,0.2227043,0.6278935,-52.90548,-11.86711,-15.95723,1002.226
5.338965416,-152.1528,71.48551,32.41264,1.34009,0.2955101,0.5789856,-52.90548,-11.86711,-15.95723,1002.226
5.344020367,-148.1684,78.69654,34.31092,1.31729,0.3390275,0.5367405,-52.90548,-11.86711,-15.95723,1002.226
5.349075317,-142.9581,85.3016,34.67833,1.293452,0.3712149,0.4698009,-52.90548,-11.86711,-15.95723,1002.226
5.354129791,-137.4414,91.78546,34.06598,1.289131,0.379531,0.4288802,-52.55716,-11.48957,-17.24384,1002.226
5.359188557,-131.5568,98.45112,33.45363,1.289249,0.367849,0.3639506,-52.55716,-11.48957,-17.24384,1002.226
5.364239693,-127.3273,104.5108,32.65758,1.247837,0.3683347,0.312649,-52.55716,-11.48957,-17.24384,1002.226
5.369294167,-126.4078,108.7526,31.1267,1.220672,0.3546283,0.2517557,-52.55716,-11.48957,-17.24384,1002.226
